relative_time,AccX,AccY,AccZ
0,0.42586441040039064,6.1611877441406255,7.395071868896485
15,0.47750701904296877,6.182742919921876,7.152127075195313
74,0.3770658874511719,6.087391204833985,7.062313842773438
141,0.10867401123046876,6.129753112792969,7.959697723388672
207,0.233514404296875,6.230643310546875,7.868387603759766
274,0.32706985473632816,6.294710083007812,7.459587707519532
340,0.722098388671875,6.7017137145996095,6.80230453491211
408,0.7375163269042969,8.207582244873047,7.014114074707032
474,1.466949462890625,7.570507049560547,5.22353759765625
540,0.0293389892578125,4.691693572998047,5.3528686523437505
607,-1.269210662841797,8.505313110351564,8.94345199584961
674,-2.884651336669922,9.407936096191406,8.045619049072267
740,-2.5706044006347657,10.97592544555664,3.7646713256835938
807,4.668940887451172,8.613687744140625,2.103874969482422
874,10.137219543457032,7.804769897460938,-0.12918136596679688
940,3.3015344238281252,5.599256286621094,-3.165018310546875
1007,-0.6629713439941407,7.5523947143554695,-2.2074595642089845
1074,-0.19100280761718752,10.698851623535157,-0.1830693054199219
1140,-2.0062779235839843,12.624447326660157,2.692001953125
1207,-2.931354217529297,9.985584869384766,3.326981506347656
1274,-1.9859202575683594,10.667416992187501,4.837939453125
1340,0.21315673828125,8.705147552490235,4.006717987060547
1407,0.21210891723632813,7.479945373535156,1.3898597717285157
1474,-2.2062620544433593,10.506052551269532,0.9071136474609376
1540,3.360062713623047,7.7918966674804695,0.6849755859375001
1607,4.171375579833985,10.873987426757813,1.9387683105468752
1674,-0.7065307617187501,11.590846710205078,5.983656921386719
1740,2.4532484436035156,8.766968994140626,4.320016479492188
1807,-0.47331573486328127,8.678952026367188,1.9305354309082032
1874,0.7698490905761719,8.070766754150391,1.7753082275390626
1940,1.9067349243164065,8.523275756835938,2.7439439392089846
2007,-0.10702743530273438,7.914342041015625,1.7522561645507813
2074,0.9966275024414063,10.842103729248047,3.2754885864257814
2139,1.4311738586425782,10.351424102783204,1.1930191040039062
2207,1.2457095336914064,10.05713607788086,1.3933026123046877
2274,0.7396119689941406,10.008636932373047,1.3897100830078126
2339,0.4827461242675781,9.639504547119142,1.4720388793945314
2407,1.708696746826172,9.737700347900391,1.2994477844238281
2473,1.0253677368164062,9.462123413085939,1.3397140502929688
2539,0.880169677734375,9.914183349609376,1.4566209411621094
2607,1.8306930541992188,9.105115814208984,1.1776011657714844
2674,0.13367202758789062,9.907896423339844,1.5567626953125
2740,1.0620414733886718,9.59010726928711,1.36037109375
2807,-0.125738525390625,9.788295135498048,1.5611036682128907
2873,1.475481719970703,9.30794403076172,1.244362335205078
2940,-0.4149371337890625,9.877808990478517,1.6353492736816406
3006,1.9154168701171876,9.122030639648438,1.1497590637207031
3073,-0.46418472290039064,9.84397933959961,1.6241226196289062
3140,1.5393988037109376,9.7189892578125,1.2627740478515626
3206,-0.32602203369140625,9.951904907226563,1.6015196228027344
3273,0.6207591247558594,10.061776428222657,1.4301260375976563
3339,0.3453318786621094,9.81673599243164,1.4254856872558594
3406,-0.10762619018554688,9.951904907226563,1.5578105163574218
3473,0.9768685913085938,9.530082092285157,1.3308824157714845
3540,0.7238946533203126,9.94262420654297,1.3597723388671876
3606,1.5760725402832032,8.949289855957032,1.1717633056640626
3673,-0.4429289245605469,9.769284667968751,1.6310083007812501
3740,1.8143769836425783,9.281000061035156,1.1470646667480469
3806,-0.5716612243652344,9.886940002441406,1.5922389221191406
3873,1.8323396301269532,9.141789550781251,1.1600875854492188
3939,0.5769003295898438,9.608069915771486,1.4165043640136719
4006,1.101559295654297,9.797875213623048,1.3226495361328126
4072,1.4226416015625,9.014703826904297,1.0952723693847657
4139,0.035326538085937505,9.967622222900392,1.567540283203125
4206,1.9124230957031252,9.085805969238281,1.249152374267578
4273,-0.5084925842285156,9.824669494628907,1.5724800109863282
4340,1.7393829345703127,9.017398223876954,1.2232562255859376
4406,-0.10343490600585938,9.837692413330078,1.6182847595214844
4473,1.9152671813964846,9.289532318115235,1.1653266906738282
4539,0.7851173400878907,9.563612365722657,1.3738430786132814
4606,1.2766950988769532,9.833501129150392,1.3669573974609375
4673,0.33724868774414063,9.874216461181641,1.5548167419433594
4739,0.09011260986328125,9.941426696777345,1.5612533569335938
4806,1.2716056823730468,9.432335357666016,1.299148406982422
4873,-0.5736071777343751,9.978250122070312,1.673968963623047
4954,0.975820770263672,9.479187927246095,1.4046789550781251
5006,0.1407073974609375,9.84547622680664,1.4051280212402344
5073,1.3548326110839843,9.791438598632814,1.2455598449707033
5139,-0.1742376708984375,9.979148254394532,1.4492861938476562
5206,-0.1621128845214844,10.058782653808594,1.457219696044922
5273,1.0856922912597657,9.409882049560547,1.1831396484375
5339,-0.7247927856445313,9.852511596679689,1.5814613342285158
5406,1.3019924926757813,9.228758697509766,1.2204121398925782
5473,0.12034973144531251,10.142608337402343,1.4298266601562502
5539,1.4467414855957033,9.22696243286133,1.2069401550292969
5606,0.3224295043945313,10.013127593994142,1.4084211730957032
5672,0.9862989807128907,9.194779357910157,1.064436492919922
5739,0.13397140502929689,9.998308410644531,0.996328125
5805,0.8120613098144531,9.533674621582032,1.0446775817871095
5873,-0.4017645263671875,10.207124176025392,0.9083111572265625
5939,1.5563136291503907,8.825347595214843,0.5252577209472656
6006,0.17558486938476564,10.084828491210938,0.7825726318359375
6073,-0.6101312255859376,9.594747619628906,-0.233514404296875
6138,1.6094531250000002,9.687554626464845,0.042361907958984375
6206,-0.5653742980957032,10.539582824707033,-0.1830693054199219
6273,0.7632627868652344,10.82204544067383,0.40625518798828125
6339,1.9471508789062502,9.394763488769533,-0.016316070556640624
6406,-1.1060499572753906,10.815309448242187,-0.3523672485351563
6473,-0.5046006774902344,9.057365112304687,0.046253814697265624
6539,1.0121951293945313,8.864116973876953,0.2436932373046875
6606,-1.229692840576172,10.52985305786133,-0.02484832763671875
6672,-0.6891668701171876,8.224796447753906,-0.5480104064941407
6739,1.29091552734375,9.692344665527344,0.09131011962890626
6806,0.08292755126953126,8.380023651123047,0.4722679138183594
6872,-1.2900173950195313,11.547886047363281,-0.4727169799804688
6939,0.868194580078125,8.159681854248047,-0.15462844848632815
7005,1.5573614501953126,9.369915161132813,-0.25147705078125
7073,-1.3400134277343752,10.544073486328125,-0.13711486816406251
7140,-0.9201365661621094,9.249864807128906,0.8036787414550781
7205,0.8499325561523438,9.995164947509766,0.09729766845703125
7272,-0.6496490478515625,10.114167480468751,-0.23426284790039065
7339,-0.3299139404296875,9.172775115966797,0.022902374267578126
7405,1.948198699951172,10.726843414306641,-0.08652008056640625
7472,0.9720785522460939,9.857601013183594,-0.18172210693359375
7541,-1.0942245483398438,9.852212219238282,0.12169692993164063
7605,-0.9535171508789063,9.603130187988281,-0.20597167968750002
7672,1.6673826599121095,9.803563385009767,-0.09729766845703125
7739,1.9496955871582031,8.848549346923829,0.15881973266601562
7805,-1.3474978637695314,10.138417053222657,1.003213806152344
7872,1.7772541809082032,9.859696655273439,0.1598675537109375
7938,1.8107844543457032,9.384884033203125,-0.3023712158203125
8005,-0.6614744567871094,10.392738189697265,0.5801934814453126
8072,1.4802717590332033,10.20472915649414,0.4602928161621094
8139,0.398770751953125,9.701924743652345,0.3758683776855469
8205,0.8785231018066406,9.941127319335939,0.40730300903320316
8272,0.9451345825195313,9.408834228515625,0.47675857543945316
8339,0.41029678344726567,9.84008743286133,0.42571472167968755
8405,0.7702981567382813,9.389075317382813,0.46298721313476565
8472,1.0385403442382812,9.44206512451172,0.7107220458984376
8538,-0.42526565551757817,9.477691040039064,0.8370593261718751
8605,1.753154296875,10.01971389770508,0.9160949707031251
8672,0.5584886169433594,9.56181610107422,1.0591973876953125
8741,0.7464976501464844,9.076076202392578,0.6679110717773438
8805,0.7526348876953125,9.655670928955079,1.5476316833496095
8872,1.1588900756835938,9.948611755371095,1.5232324218750002
8939,0.8996292114257813,10.182425537109376,1.3368699645996094
9005,0.8599617004394532,9.244476013183593,1.5739768981933595
9072,1.3030403137207032,9.784253540039064,1.1491603088378908
9140,1.3313314819335937,9.040899353027344,1.2421170043945313
9205,0.5489085388183594,9.900861053466798,2.0074754333496094
9272,0.7026388549804687,9.864636383056641,2.192191314697266
9339,0.9749226379394532,9.440418548583985,1.9172131347656252
9405,1.1169772338867188,9.645192718505859,1.466799774169922
9472,0.2860551452636719,10.352771301269533,1.5443385314941407
9539,1.3678555297851562,9.507329406738283,1.3331277465820313
9605,1.3108241271972656,9.220974884033204,1.203347625732422
9672,0.5544470214843751,9.56286392211914,0.9380992126464844
9740,2.079026641845703,9.533375244140625,0.9722282409667969
9805,0.3004252624511719,9.406439208984375,1.7010626220703127
9872,-0.836909637451172,9.872869262695312,1.597328338623047
9954,1.2433145141601563,9.09538604736328,1.342258758544922
10005,1.2076885986328125,9.431886291503906,1.4241384887695314
10072,0.5605842590332032,9.468709716796875,1.9588265991210938
10139,1.551822967529297,9.486372985839845,2.7065217590332034
10205,0.8247848510742188,9.689650268554688,3.02011962890625
10272,0.9741741943359375,9.442364501953126,2.585124206542969
10339,0.326920166015625,9.35539535522461,2.4852818298339847
10405,1.4528787231445313,8.775950317382813,2.212099914550781
10472,1.6052618408203125,9.397906951904297,2.281256103515625
10539,0.9087602233886719,10.080786895751954,2.937192077636719
10605,1.0831475830078126,9.700577545166016,2.887196044921875
10672,0.6029461669921875,9.606123962402345,2.893033905029297
10739,1.0289602661132813,9.38608154296875,2.98179931640625
10805,1.1762539672851564,9.298663330078126,3.2947984313964844
10872,0.7830216979980469,9.76733871459961,3.4423915100097657
10939,1.3187576293945313,8.901988220214845,2.990930328369141
11005,0.2528242492675781,9.367969207763672,2.8123516845703125
11072,0.9081614685058594,9.3645263671875,2.017654266357422
11139,0.05179229736328125,9.583221588134766,1.8735040283203126
11205,0.7207511901855469,9.555080108642578,1.47772705078125
11272,0.6590794372558594,9.729317779541017,1.7929714965820314
11338,0.8030799865722656,9.698182525634767,2.0049307250976565
11405,1.7235159301757814,9.25285858154297,2.2082080078125
11472,0.6252497863769532,9.645342407226563,2.385140075683594
11538,1.7106427001953126,9.172026672363282,2.174677734375
11605,0.48289581298828127,9.957892456054688,2.3138882446289064
11671,1.693129119873047,9.79368392944336,2.2097048950195313
11739,0.2540217590332031,9.800419921875001,2.491718444824219
11805,1.6652870178222656,9.22516616821289,2.101479949951172
11872,1.126707000732422,9.096882934570313,2.6238935852050784
11938,1.6262182617187502,9.500892791748047,2.828069000244141
12005,1.3401631164550782,9.346414031982423,2.602039031982422
12072,1.4756314086914064,8.869655456542969,2.5674609375
12139,1.3018428039550782,9.315278778076172,2.6665548706054687
12205,0.6460565185546875,9.814340972900391,2.9075537109375
12272,1.3019924926757813,9.278605041503907,2.7090664672851563
12337,0.6975494384765626,9.492510223388672,2.7309210205078127
12405,1.0398875427246095,9.523944854736328,2.5033941650390625
12472,0.5595364379882812,9.558822326660156,2.2004241943359375
12538,1.667981414794922,9.664502563476564,1.7537530517578126
12605,0.931512908935547,9.435628509521484,1.6506175231933595
12671,1.4178515625,9.800270233154297,1.6337026977539064
12738,1.3145663452148437,9.455836486816407,1.633253631591797
12805,0.959205322265625,9.708361358642579,1.6289126586914062
12871,0.5737568664550782,9.100774841308594,1.4900015258789063
12938,0.5671705627441407,9.774374084472656,1.7988093566894532
13005,0.8134085083007813,9.621092834472657,1.6696279907226563
13071,0.223934326171875,9.683962097167969,1.638043670654297
13139,1.1470646667480469,9.400601348876954,1.3596226501464845
13204,-0.07559280395507813,9.795779571533204,1.5305671691894531
13271,1.503772888183594,9.222022705078125,1.2723541259765625
13338,0.4477189636230469,9.837542724609376,1.445543975830078
13404,1.6592994689941407,9.223818969726564,1.1790980529785158
13471,0.11541000366210938,9.731563110351564,1.4877561950683595
13538,1.5561639404296876,9.350455627441407,1.2235556030273438
13604,0.21794677734375,9.622589721679688,1.4338682556152345
13671,1.026265869140625,9.464817810058594,1.1629316711425781
13738,0.3031196594238281,9.650282135009766,1.4203962707519533
13804,0.9324110412597657,9.53023178100586,1.333876190185547
13871,0.13861175537109377,9.712552642822265,1.3942007446289064
13938,1.0725196838378908,9.470056915283203,1.2530442810058595
14004,0.056582336425781254,9.683213653564454,1.3947994995117188
14071,1.0696755981445314,9.352401580810547,1.159189453125
14138,1.1813433837890626,9.83290237426758,1.081201629638672
14204,1.289418640136719,9.351503448486328,1.2820838928222658
14271,-0.09131011962890626,9.973460083007813,1.2648696899414062
14338,-0.02185455322265625,9.566456451416016,1.4376104736328126
14404,2.185305633544922,8.817713470458985,0.7229965209960938
14471,-0.6698570251464844,9.684860229492188,0.7937992858886719
14538,0.27812164306640624,9.689500579833984,0.7026388549804687
14604,0.4149371337890625,10.318342895507813,0.6200106811523438
14671,-0.025746459960937502,9.739646301269532,0.6465055847167969
14738,0.7879614257812501,10.092761993408203,0.2860551452636719
14804,0.3350033569335938,9.984387359619141,0.21600082397460937
14871,0.5893244934082031,9.703571319580078,0.4923262023925781
14953,0.5652246093750001,9.900861053466798,0.3457809448242188
15004,0.3020718383789063,10.088121643066406,0.3534150695800781
15071,0.358055419921875,9.423054656982423,0.026943969726562503
15138,0.18711090087890625,9.516161041259766,0.1387614440917969
15204,0.6209088134765626,10.063722381591797,-0.08187973022460938
15271,0.23860382080078127,9.982591094970704,0.11705657958984375
15338,0.3396437072753906,9.768985290527345,0.03427871704101563
15404,0.5390290832519532,10.050100708007813,0.14983840942382814
15471,0.2900967407226563,9.955198059082031,0.20507354736328126
15538,0.3445834350585938,9.955796813964843,0.07214996337890625
15604,0.14804214477539063,9.667496337890626,-0.27198440551757813
15671,0.08652008056640625,10.248438262939453,-0.31913635253906253
15738,0.1933978271484375,9.167236633300782,-0.4137396240234375
15804,0.32811767578125,9.877060546875,-0.0724493408203125
15871,0.33171020507812504,10.4566552734375,-0.4082011413574219
15938,0.499361572265625,9.863438873291017,-0.6372248840332032
16004,0.4584965515136719,9.138945465087891,-1.0565029907226564
16071,0.2477348327636719,9.48083450317383,-1.0518626403808595
16138,0.056133270263671875,10.657387847900392,-0.011376342773437501
16204,-0.27333160400390627,10.453362121582032,-0.08322692871093751
16271,-1.018032989501953,10.017468566894532,-0.7800279235839844
16338,1.6209791564941407,9.134005737304689,-0.7685018920898438
16404,0.40730300903320316,10.046208801269533,-0.15462844848632815
16471,-1.347198486328125,9.989925842285157,0.043858795166015624
16538,0.7548802185058594,10.217752075195312,-0.30296997070312504
16604,1.925446014404297,9.4890673828125,-0.8216413879394532
16671,-0.7429051208496094,10.475665740966797,-0.10687774658203125
16737,-0.5764512634277345,10.244097290039063,-0.25312362670898436
16804,0.5656736755371095,10.148296508789063,-0.5623805236816406
16871,-0.18007553100585938,9.745933227539062,0.060174865722656255
16937,1.6893869018554688,9.183103637695313,-0.14459930419921876
17004,1.0889854431152344,10.124046936035157,0.1585203552246094
17071,0.16675323486328125,9.405541076660157,0.31763946533203125
17138,-0.350870361328125,9.795929260253907,-0.5313949584960938
17204,0.7541317749023438,9.827363891601562,-0.10553054809570313
17271,0.3983216857910156,9.677226104736329,-0.2327659606933594
17338,0.20836669921875,9.007069702148438,-0.08891510009765625
17404,1.272803192138672,10.662926330566407,-0.00508941650390625
17471,0.8988807678222657,10.409054260253907,-0.26839187622070315
17537,0.756826171875,9.682016143798828,-0.199984130859375
17604,0.12663665771484375,9.148226165771485,-0.34982254028320314
17671,0.7060816955566407,9.476792907714843,-0.2755769348144531
17738,1.1250604248046876,9.639654235839844,0.3031196594238281
17804,0.5110372924804688,10.252928924560548,0.08577163696289063
17871,0.44921585083007814,9.381890258789063,0.06930587768554688
17937,1.0367440795898437,9.604627075195314,0.17648300170898437
18004,0.6153703308105469,9.628577270507813,0.29937744140625
18071,0.2279759216308594,9.27680877685547,0.4816983032226563
18137,1.263223114013672,9.784852294921876,0.33679962158203125
18204,0.9803114318847657,10.081685028076173,1.0087522888183593
18270,1.2445120239257814,9.394613800048829,0.9779164123535157
18337,1.7069004821777345,9.426647186279297,1.4594650268554688
18404,1.4028826904296876,9.672585754394532,2.132465515136719
18471,0.36209701538085937,9.244625701904297,1.5884967041015625
18537,1.0132429504394531,9.878557434082031,1.3115725708007813
18604,0.8837622070312501,10.701096954345704,1.768422546386719
18671,1.475182342529297,9.363478546142579,1.4006373596191406
18737,0.10732681274414063,9.615404663085938,1.8184185791015626
18804,0.9719288635253907,9.728269958496094,1.526675262451172
18871,0.49487091064453126,9.489815826416017,1.2066407775878907
18937,0.20073257446289064,9.514215087890625,1.673968963623047
19004,0.18232086181640625,8.907676391601562,1.3488450622558594
19071,0.1676513671875,8.525820465087891,1.3006452941894533
19138,0.6050418090820313,9.692344665527344,0.9924362182617188
19204,1.0292596435546875,9.146729278564454,1.2527449035644531
19271,0.6324348449707031,9.316476287841798,1.277593231201172
19341,0.7318281555175782,10.073152770996094,1.6476237487792968
19404,0.30222152709960937,9.21843017578125,1.5682887268066408
19471,1.4615606689453127,10.541229400634766,0.7488926696777344
19541,0.5108876037597656,10.184670867919923,1.0324031066894532
19604,0.8738827514648438,9.587562561035156,-0.40625518798828125
19671,0.532891845703125,9.71270233154297,0.11840377807617188
19741,0.33679962158203125,9.643695831298828,0.6623725891113281
19804,1.859582977294922,10.066566467285156,0.6906637573242188
19871,0.08876541137695312,10.640323333740234,0.24668701171875002
19954,1.5335609436035158,8.64212860107422,-0.080233154296875
20004,1.1141331481933594,9.59774139404297,0.13726455688476563
20071,0.314945068359375,10.502010955810547,0.0335302734375
20141,0.5162763977050782,10.012379150390625,-0.006735992431640626
20204,0.3752696228027344,9.241182861328125,-0.10852432250976562
20270,0.5513035583496094,10.62999481201172,0.4427792358398438
20341,0.5754034423828125,10.79629898071289,0.858614501953125
20404,-0.12424163818359375,9.81134719848633,-0.29309051513671874
20471,0.6608757019042969,9.791438598632814,-0.233514404296875
20541,0.45834686279296877,9.746232604980468,0.3384461975097656
20604,-0.06586303710937501,9.76404556274414,0.46837600708007815
20671,0.04954696655273438,9.604178009033204,0.1586700439453125
20747,1.0000703430175781,9.828262023925781,0.010927276611328125
20804,-0.14744338989257813,9.056766357421875,0.24983047485351564
20871,0.830922088623047,7.99023422241211,0.3435356140136719
20941,1.0734178161621095,9.908794555664063,-0.39113662719726566
21003,0.5441184997558594,10.094109191894532,0.3514691162109375
21071,0.45340713500976565,10.368039550781251,1.1840377807617188
21141,-0.21315673828125,10.465786285400391,1.8271005249023438
21204,1.1252101135253907,9.376800842285157,1.3522879028320314
21271,0.35281631469726565,9.572144622802735,1.7898280334472658
21341,0.8948391723632813,9.54070999145508,1.0870394897460938
21404,0.7533833312988282,8.750503234863281,1.4602134704589844
21471,0.5363346862792969,10.530601501464844,1.6115487670898438
21541,0.7033872985839844,11.048374786376954,1.1644285583496095
21604,-0.0820294189453125,9.673483886718751,1.7444723510742188
21670,1.0433303833007812,9.743837585449219,1.0517129516601562
21747,1.0467732238769532,10.670111389160157,0.9668394470214844
21804,1.118324432373047,9.638157348632813,0.8330177307128906
21871,0.6532415771484376,8.95782211303711,0.8863069152832032
21941,0.41628433227539063,9.77123062133789,1.3132191467285157
22004,0.7605683898925781,8.946146392822266,1.0666818237304687
22070,0.10373428344726562,10.542127532958984,1.1487112426757813
22141,0.8325686645507813,10.331365814208985,1.0577005004882813
22204,0.8183482360839844,10.144404602050782,0.44562332153320316
22270,0.4117936706542969,9.651329956054688,-0.047900390625000004
22341,0.9321116638183594,8.945248260498047,0.5560935974121094
22404,0.8786727905273438,10.743907928466797,0.9047186279296875
22470,1.0303074645996095,9.281449127197266,0.9346563720703126
22541,0.6779402160644532,8.485404510498046,0.7009922790527344
22604,0.6120771789550782,10.175539855957032,0.6864724731445313
22670,0.5547463989257813,9.69309310913086,1.2916639709472657
22741,0.9542655944824219,9.912985839843751,1.0928773498535156
22803,0.1585203552246094,9.821975097656251,1.0175839233398438
22870,0.7473957824707032,8.581953735351563,1.0698252868652345
22941,0.6081852722167969,9.040300598144531,0.4794529724121094
23003,0.39308258056640627,8.509654083251954,1.0232720947265626
23070,0.880169677734375,9.850865020751954,0.7638615417480469
23142,0.9469308471679688,9.670190734863281,0.8396040344238281
23203,1.0942245483398438,8.942703552246094,1.6982185363769533
23270,0.7770341491699219,9.475445709228516,1.6102015686035156
23341,1.191372528076172,9.667646026611328,0.7622149658203126
23404,0.5581892395019532,9.91582992553711,1.460812225341797
23470,0.8893006896972657,9.015452270507813,0.9921368408203125
23541,0.8147557067871094,9.022787017822266,0.4525090026855469
23603,0.5291496276855469,8.259673919677734,0.6713539123535157
23670,1.1192225646972658,9.209448852539063,0.7337741088867188
23746,0.9086105346679688,10.55290512084961,1.5070660400390625
23803,1.184187469482422,9.634265441894533,1.9669097900390626
23870,0.4474195861816406,9.758357391357423,1.1642788696289064
23941,1.1225157165527344,9.24282943725586,0.55324951171875
24003,0.25896148681640624,9.816885681152344,0.8643026733398438
24070,0.444276123046875,10.30187713623047,1.2401710510253907
24141,1.1302995300292968,8.854087829589844,1.1117381286621095
24203,-0.41628433227539063,8.781339111328126,1.3274395751953125
24270,1.0376422119140625,9.663754119873047,1.2350816345214843
24341,-0.42227188110351566,10.255174255371093,1.1491603088378908
24403,1.0523117065429688,9.177714843750001,1.2051438903808593
24470,-0.056282958984375006,7.957302703857422,1.4504837036132814
24541,0.7222480773925781,8.731492767333984,0.9864486694335938
24603,0.7499404907226563,9.837842102050782,0.9475296020507813
24670,0.6662644958496095,9.300010528564453,0.9669891357421876
24741,1.21427490234375,9.86837860107422,1.8265017700195314
24803,0.15163467407226563,9.042695617675781,0.969833221435547
24870,1.3168116760253907,9.652377777099609,0.760418701171875
24954,0.6126759338378907,10.708282012939454,1.8732046508789064
25003,1.0783575439453126,10.038874053955078,0.9395960998535157
25070,1.044228515625,9.032816162109375,1.120719451904297
25141,0.7295828247070313,9.768685913085937,1.4638059997558595
25203,-0.16031661987304688,9.262139282226563,1.2205618286132813
25270,0.9523196411132813,9.695787506103516,1.3433065795898438
25339,0.38589752197265625,9.403595123291016,1.2831317138671876
25403,1.4745835876464843,10.123448181152344,1.3748908996582032
25470,0.17797988891601563,9.066645812988282,1.1588900756835938
25541,1.0970686340332032,8.52716766357422,0.384400634765625
25603,0.7054829406738281,9.555678863525392,1.2235556030273438
25669,1.0874885559082033,9.736652526855469,1.9862196350097656
25747,1.2072395324707033,9.528734893798829,2.137405242919922
25803,0.7610174560546875,7.400310974121094,1.2031979370117187
25870,0.7473957824707032,9.724827117919922,1.456022186279297
25940,0.8875044250488282,9.190887451171875,1.6199313354492189
26003,0.4571493530273438,8.760233001708984,1.8700611877441407
26069,1.00830322265625,8.405919799804687,1.3216017150878907
26141,0.6274951171875001,9.657317504882814,1.8573376464843752
26203,1.464404754638672,8.243657226562501,2.0517832946777346
26270,-0.33260833740234375,9.30120803833008,1.8940113830566407
26341,0.5872288513183594,9.883646850585938,1.4317726135253908
26403,0.13711486816406251,8.530760192871094,0.987945556640625
26469,1.4587165832519533,9.308393096923828,1.0133926391601562
26541,0.4890330505371094,10.065818023681642,1.8672171020507813
26603,1.3605207824707033,9.312135314941406,0.7806266784667969
26670,1.1368858337402343,9.228609008789062,0.9524693298339845
26748,1.0746153259277345,8.996890869140625,1.3690530395507814
26803,1.0698252868652345,9.395811309814453,1.5015275573730469
26870,0.22602996826171876,9.414372711181642,1.2052935791015627
26939,1.3016931152343751,9.680818634033203,0.871637420654297
27003,0.17049545288085938,9.84113525390625,1.5449372863769533
27070,0.22632934570312502,10.242600402832032,1.4790742492675781
27141,1.235979766845703,10.021360473632813,1.70525390625
27203,1.0078541564941408,9.391021270751954,1.7368382263183595
27270,0.3224295043945313,9.15810562133789,1.6245716857910157
27341,1.3843212890625,8.92623779296875,1.6458274841308596
27403,0.5541476440429688,9.868827667236328,1.1476634216308594
27469,0.3730242919921875,7.885601806640626,1.482367401123047
27541,-0.4355941772460938,9.820627899169923,1.9285894775390626
27603,2.226020965576172,10.664722595214844,1.2235556030273438
27670,-0.124541015625,9.908046112060548,1.5913407897949219
27741,0.9647438049316407,10.259664916992188,1.520687713623047
27803,0.7749385070800782,9.117390289306641,1.2349319458007812
27870,0.6117778015136719,8.486751708984375,1.48251708984375
27940,1.5513739013671877,9.987381134033203,1.4331198120117188
28003,0.7041357421875001,9.944420471191407,1.9193087768554689
28070,0.8818162536621095,10.179880828857423,1.9498452758789064
28140,0.8385562133789063,8.260572052001953,0.7792794799804688
28203,0.4680766296386719,9.162147216796875,0.9627978515625001
28270,1.2150233459472657,9.951455841064453,1.8263520812988283
28340,1.1657757568359375,9.107061767578125,2.107467498779297
28403,0.5471122741699219,10.386750640869142,2.125879211425781
28470,0.8595126342773438,9.786648559570313,2.27287353515625
28539,1.2168196105957032,9.574539642333985,1.606908416748047
28603,1.0235714721679687,10.084529113769532,1.5667918395996094
28670,1.0065069580078125,9.367969207763672,1.1846365356445314
28741,1.203347625732422,9.765243072509767,1.2028985595703126
28803,0.9503736877441407,8.871302032470703,0.7640112304687501
28870,0.5836363220214844,8.90034164428711,1.248852996826172
28940,1.11847412109375,8.643176422119142,0.8845106506347656
29003,0.5761518859863282,11.065738677978516,2.558180236816406
29070,1.3587245178222658,10.27702880859375,2.0866607666015624
29140,1.4470408630371094,9.50194061279297,2.010319519042969
29203,0.21345611572265627,8.763675842285156,1.464404754638672
29269,2.0413050842285156,7.958051147460938,1.8182688903808595
29341,2.2444326782226565,9.255552978515626,1.0937754821777343
29403,1.0677296447753908,11.559112701416016,2.3245161437988284
29470,1.7666262817382814,9.66435287475586,1.016685791015625
29539,0.631087646484375,9.455686798095703,1.810485076904297
29603,1.2912149047851562,9.327702941894533,1.2901670837402344
29670,0.7744894409179688,10.540630645751953,1.9860699462890625
29746,1.1003617858886718,10.217901763916016,1.8610798645019533
29803,0.978215789794922,9.912686462402345,0.9286688232421876
29870,1.1500584411621095,8.02660858154297,1.847607879638672
29954,0.7217990112304687,8.715775451660157,0.5873785400390625
30003,0.9755213928222657,10.621911621093751,1.0235714721679687
30070,0.748443603515625,9.873018951416016,2.215991821289063
30140,1.5043716430664062,10.20607635498047,2.6502388000488284
30203,1.4066249084472657,9.113797760009765,2.31837890625
30270,1.090781707763672,8.047864379882814,1.69327880859375
30340,0.348475341796875,9.295968933105469,1.9453546142578126
30403,1.0243199157714844,10.308313751220703,2.3514601135253907
30469,1.481169891357422,10.955118713378907,2.7939399719238285
30540,1.5009288024902345,8.973240051269531,2.350561981201172
30603,1.931433563232422,10.345586242675783,1.8356327819824219
30669,1.6018190002441408,9.781409454345704,2.4444168090820315
30749,1.2075389099121094,8.296946411132813,2.472258911132813
30803,2.4275019836425784,8.687035217285157,4.266727294921875
30869,2.5914111328125,9.153165893554688,5.079686737060547
30940,2.896776123046875,8.603658599853516,5.319637756347657
31003,1.8616786193847656,10.21281234741211,5.7155644226074225
31070,1.82021484375,9.469308471679687,5.214256896972657
31141,1.5663427734375002,8.64841552734375,4.698728942871094
31203,2.6339227294921876,8.585246887207031,4.229903869628907
31270,1.644031219482422,9.366322631835938,5.796096954345703
31340,1.9983444213867188,9.319619750976562,4.95050537109375
31403,1.9965481567382815,9.491163024902344,5.074597320556641
31469,2.4530987548828125,8.314609680175781,4.600233764648438
31540,1.6868421936035156,8.608448638916016,4.6024790954589845
31603,2.48842529296875,9.137598266601563,5.207670593261719
31670,2.5298890686035156,9.580377502441406,5.672753448486328
31740,1.930236053466797,8.778045959472657,4.635111236572266
31803,1.77470947265625,8.083340606689454,5.461842041015625
31870,2.3382875061035158,9.155710601806641,5.146298217773437
31940,2.325264587402344,8.215066680908203,4.93418930053711
32003,2.3775059509277345,8.529412994384765,4.613556060791016
32070,1.6790583801269532,9.634115753173829,4.793182525634766
32140,1.3308824157714845,9.29222671508789,4.085603942871094
32203,1.632056121826172,8.85917724609375,3.9616616821289066
32269,1.7811460876464844,9.410780181884766,3.9547760009765627
32339,2.1186941528320316,9.156758422851563,4.233945465087891
32403,1.9646644592285156,9.123976593017579,3.7137771606445313
32469,1.6410374450683594,8.891360321044923,4.198618927001953
32540,1.6015196228027344,9.119036865234376,4.375700683593751
32603,0.9647438049316407,9.162147216796875,3.7366795349121094
32669,1.224902801513672,8.857979736328126,3.4082624816894533
32749,1.4653028869628908,9.336384887695313,3.0082942199707032
32803,1.3750405883789063,9.001082153320313,3.174149322509766
32869,1.0205776977539063,9.32096694946289,3.160827026367188
32941,1.374591522216797,9.469158782958985,3.2000454711914066
33003,1.7568965148925781,9.389823760986328,3.1930101013183596
33069,1.4639556884765625,9.291328582763672,3.3162039184570316
33140,1.671573944091797,9.515711975097657,3.2768357849121097
33203,1.3437556457519533,8.931327209472657,3.237018585205078
33270,1.3165122985839846,9.73425750732422,3.5188824462890627
33340,1.440604248046875,8.868457946777344,3.2921040344238284
33403,1.7568965148925781,9.628277893066407,3.310515747070313
33470,1.696721649169922,9.054371337890625,3.0768516540527346
33540,1.4929953002929688,9.143436126708984,2.7526258850097656
33603,1.8523979187011719,9.96567626953125,2.424957275390625
33669,1.4745835876464843,9.659263458251953,1.7369879150390626
33746,0.996328125,9.389973449707032,1.4337185668945314
33803,1.24301513671875,8.991202697753907,1.2885205078125002
33869,0.4808001708984375,9.871671752929688,1.7940193176269532
33939,1.6693286132812502,9.173373870849609,1.8190173339843752
34003,1.214424591064453,9.75775863647461,2.256258087158203
34070,1.6007711791992187,9.995913391113282,2.316133575439453
34140,1.6830999755859375,9.33054702758789,2.117047576904297
34203,1.3813275146484376,9.134754180908203,1.96631103515625
34269,1.8363812255859375,9.154513092041016,2.0136126708984374
34340,1.7089961242675782,9.78455291748047,2.281256103515625
34403,1.6601976013183595,9.195677490234376,2.265538787841797
34470,0.9919871520996094,9.267528076171876,2.3204745483398437
34542,1.6838484191894532,9.12831756591797,2.6445506286621097
34605,1.3615686035156251,10.103090515136719,2.703827362060547
34671,1.8154248046875001,9.829309844970703,2.781815185546875
34769,1.8318905639648437,9.493108978271485,2.604284362792969
34850,1.7648300170898439,9.55418197631836,2.3275099182128907
34871,1.12805419921875,9.189839630126954,2.216141510009766
34980,0.5198689270019532,9.469009094238281,1.5750247192382814
35003,0.5405259704589844,9.192833404541016,1.580413513183594
35070,-0.11765533447265626,10.0255517578125,2.2504202270507814
35141,1.139729919433594,9.502239990234376,1.7860858154296877
35202,0.15822097778320313,9.571994934082031,1.5617024230957033
35269,1.8329383850097658,9.125772857666016,0.9951306152343751
35340,0.7777825927734375,9.654922485351562,1.2678634643554687
35403,1.787882080078125,9.242080993652344,1.1193722534179689
35469,0.43828857421875,9.367520141601563,1.3127700805664062
35540,1.6283139038085939,9.821975097656251,1.3274395751953125
35603,0.295784912109375,9.682165832519532,1.7372872924804688
35670,0.8084687805175782,9.878557434082031,1.3516891479492188
35745,0.3941304016113281,9.490713958740235,1.3873150634765625
35803,1.4697935485839844,9.877060546875,1.3750405883789063
35869,0.7810757446289063,9.851463775634766,1.3907579040527345
35939,1.2389735412597658,9.986333312988283,0.6878196716308594
36003,0.35745666503906254,9.657018127441408,0.30910720825195315
36069,1.833387451171875,9.143585815429688,0.0916094970703125
36140,0.86939208984375,9.672585754394532,-0.018411712646484377
36203,-0.48514114379882817,9.971065063476564,0.29144393920898437
36270,1.4468911743164063,9.444310455322267,-0.2652484130859375
36340,-0.27647506713867187,9.47993637084961,0.22228775024414063
36403,0.0718505859375,10.080487518310548,0.07978408813476563
36469,0.9725276184082031,10.873538360595704,0.32332763671875003
36539,0.08771759033203125,9.709409179687501,-0.2603086853027344
36603,-0.00239501953125,9.93214599609375,-0.099393310546875
36670,1.4468911743164063,9.940528564453125,0.02484832763671875
36747,0.19983444213867188,10.056387634277344,-0.396375732421875
36803,0.8611592102050781,9.635762329101563,-0.7976911926269532
36870,0.8479866027832031,9.782157897949219,-0.3975732421875
36939,0.4005670166015625,9.994117126464845,-0.1694476318359375
37003,1.1238629150390627,9.820328521728516,-0.4903802490234375
37069,0.17244140625,9.12831756591797,-1.086141357421875
37139,0.5234614562988281,9.696535949707032,-1.2910652160644531
37203,0.3576063537597656,10.275382232666017,0.12469070434570313
37270,0.7650590515136719,9.979148254394532,0.06541397094726563
37340,1.5878979492187502,9.329948272705078,0.9126521301269531
37403,0.12424163818359375,9.98199234008789,1.3015434265136718
37469,0.9587562561035157,9.206754455566406,0.6628216552734375
37540,0.5330415344238282,9.293424224853515,-0.021405487060546877
37603,0.44846740722656253,10.187964019775391,-1.5127542114257813
37669,0.5373825073242188,9.494007110595703,-1.469194793701172
37748,0.07035369873046875,8.918004913330078,-1.6887881469726564
37803,0.44442581176757817,10.087672576904298,-0.6150709533691406
37870,0.43424697875976564,9.926457824707033,-0.7391629028320312
37964,0.5289999389648438,9.904004516601564,-0.5047503662109375
38003,0.8433462524414063,9.777218170166016,-0.09475296020507813
38072,0.2797682189941406,9.627379760742189,-0.30716125488281254
38137,0.8705895996093751,9.053173828125,-1.011596374511719
38216,0.9309141540527345,10.072554016113282,-0.800984344482422
38269,0.49531997680664064,9.955946502685547,-0.5194198608398438
38340,0.9443861389160156,10.243797912597657,-1.3460009765625
38403,0.5011578369140626,9.223220214843751,-0.2734812927246094
38469,-0.0736468505859375,9.319320373535156,0.32706985473632816
38541,1.3421090698242188,9.905501403808595,0.9644444274902344
38603,0.6978488159179688,9.104816436767578,1.1660751342773439
38669,0.9339079284667969,9.328451385498047,1.2707075500488283
38750,0.5760021972656251,9.192234649658204,1.9185603332519532
38803,0.6108796691894531,10.716514892578125,1.6112493896484377
38869,0.7722441101074219,8.77490249633789,1.9802320861816407
38939,-0.2935395812988281,9.338330841064453,1.7077986145019532
39003,0.890797576904297,10.773097229003907,1.7308506774902344
39069,1.2885205078125002,10.184072113037109,1.4151571655273438
39139,2.5735981750488284,9.746531982421876,1.3693524169921876
39203,-0.012873229980468751,7.596403198242188,1.379381561279297
39269,-0.05254074096679688,10.694510650634767,1.5021263122558595
39340,-0.8696914672851563,10.361602935791016,0.6843768310546875
39403,1.1352392578125001,11.833342437744141,1.8239570617675782
39469,0.18935623168945315,10.661878509521484,1.8453625488281251
39540,1.3909075927734376,9.363927612304687,1.0623408508300782
39603,1.3425581359863281,7.887547760009766,0.3610491943359375
39670,-0.8280780029296876,10.53419403076172,3.2337254333496097
39747,0.6261479187011719,9.20540725708008,1.9634669494628907
39802,1.5573614501953126,9.194629669189453,1.5058685302734376
39870,1.0343490600585938,9.073830871582032,0.9668394470214844
39952,1.2208612060546875,9.48427734375,0.6331832885742188
40003,1.1557466125488283,9.954449615478516,1.8556910705566407
40070,1.5527210998535157,10.202783203125,1.5861016845703126
40140,1.5696359252929688,10.42836410522461,1.9594253540039064
40203,0.9650431823730469,8.487350463867188,0.9818083190917969
40270,0.4788542175292969,8.632698211669922,1.2838801574707033
40339,0.3246748352050781,9.775272216796875,1.3010943603515626
40403,1.1093431091308594,9.518855438232423,1.772164764404297
40470,1.2983999633789063,9.721983032226563,1.751807098388672
40540,1.791474609375,10.093360748291015,1.2184661865234376
40603,1.7922230529785157,9.707612915039062,1.652413787841797
40670,0.6725514221191407,9.68875213623047,0.7611671447753907
40750,0.629740447998047,8.827742614746095,0.5484594726562501
40803,2.0814216613769534,8.708291015625,1.1517050170898437
40870,1.7281562805175783,8.877439270019531,1.8913169860839845
40939,1.2822335815429688,9.60058547973633,2.0740869140625002
41003,1.0196795654296875,12.087513885498048,1.3335768127441407
41070,1.7308506774902344,10.556946716308595,1.32923583984375
41140,1.7562977600097658,8.584797821044923,0.3502716064453125
41203,-0.0712518310546875,7.745642852783203,0.32213012695312504
41270,1.361418914794922,10.028096466064454,1.4805711364746095
41340,1.026265869140625,10.787766723632814,2.518512725830078
41403,2.156266021728516,10.848240966796876,2.5378225708007816
41470,-0.14415023803710938,9.563163299560548,1.7881814575195314
41539,0.8319699096679688,9.070986785888673,0.6532415771484376
41603,1.2624746704101564,9.608668670654298,0.5298980712890625
41670,0.7354206848144531,8.596922607421876,1.3635145568847657
41749,1.0231224060058595,11.452384643554687,2.0107685852050783
41803,1.8994001770019533,8.356971588134765,1.1822415161132813
41870,1.435814208984375,8.474327545166016,1.5013778686523438
41940,0.8104147338867188,9.704469451904297,1.4834152221679688
42003,1.2606784057617189,10.694660339355469,1.5393988037109376
42070,0.7934999084472657,9.721533966064454,1.2147239685058595
42140,1.8107844543457032,9.67393295288086,1.3016931152343751
42203,1.5944842529296877,7.801476745605469,1.47533203125
42270,1.8190173339843752,8.937015380859375,0.5745053100585937
42340,0.6017486572265626,9.25196044921875,1.3715977478027344
42403,0.8002359008789063,10.111473083496094,2.12917236328125
42470,1.786534881591797,9.74862762451172,2.076032867431641
42540,1.0702743530273438,9.360035705566407,1.8206639099121094
42603,1.3814772033691407,10.106832733154297,1.5573614501953126
42670,1.4495855712890626,10.26550277709961,1.9008970642089844
42748,1.3106744384765625,8.036937103271486,1.9974462890625
42803,1.3150154113769532,8.518785095214843,1.410516815185547
42870,1.3335768127441407,9.589059448242187,1.8675164794921877
42940,0.6616241455078126,9.97854949951172,2.4077430725097657
43003,1.197659454345703,9.812245330810548,2.048639831542969
43070,0.8746311950683594,8.868607635498048,1.4696438598632813
43149,1.0671308898925782,9.55328384399414,1.73159912109375
43203,1.008153533935547,10.008337554931641,1.7551002502441406
43270,0.7728428649902345,10.303224334716797,1.9113752746582031
43342,1.4076727294921876,9.478738861083984,2.039508819580078
43403,1.011895751953125,9.49430648803711,1.3287867736816408
43470,1.1605366516113282,9.398954772949219,1.896556091308594
43540,0.7858657836914062,9.869276733398438,2.1507275390625002
43603,0.8625064086914063,9.175469512939454,1.9429595947265625
43670,1.9251466369628907,8.422984313964845,1.7559983825683594
43748,1.5079641723632813,8.574768676757813,1.1868818664550782
43803,1.2281959533691407,9.978848876953126,1.5628999328613282
43870,1.60705810546875,9.661209411621094,1.4446458435058593
43939,1.1722123718261719,10.673105163574219,1.2494517517089845
44003,0.5177732849121094,9.140891418457032,0.8038284301757813
44070,1.3588742065429689,9.911638641357422,1.3718971252441408
44141,1.5262261962890626,9.389674072265626,0.8509803771972657
44203,1.0518626403808595,8.50276840209961,1.2915142822265626
44270,0.7253915405273438,9.39611068725586,1.2558883666992189
44340,0.9611512756347657,8.968450012207033,1.8646723937988283
44403,1.9645147705078125,9.854906616210938,2.211950225830078
44470,0.5887257385253907,9.509724426269532,1.2114308166503907
44540,2.002386016845703,9.642198944091797,1.2519964599609377
44602,1.8461109924316408,9.288933563232423,1.257534942626953
44670,0.39892044067382815,10.537487182617188,1.8124310302734377
44740,0.5873785400390625,10.297386474609375,1.5284715270996094
44803,1.5307168579101564,9.147477722167968,1.159189453125
44870,2.1315673828125,9.833052062988282,1.3741424560546875
44949,1.473835144042969,9.583520965576172,1.3934523010253907
45003,1.340911560058594,8.299790496826173,1.2916639709472657
45070,1.9980450439453126,10.226284332275391,2.0472926330566406
45140,0.8596623229980469,9.612261199951172,1.6528628540039063
45203,0.9300160217285157,10.051447906494142,1.3653108215332033
45270,-0.017962646484375,9.605824584960938,2.3375390625000003
45340,1.8902691650390626,9.876012725830078,1.5015275573730469
45403,1.6227754211425782,9.814041595458985,1.4397061157226563
45470,0.7093748474121094,9.19253402709961,1.4364129638671876
45540,0.6234535217285156,8.735684051513672,1.4296769714355468
45603,0.23785537719726563,9.847721557617188,2.332599334716797
45670,1.630858612060547,9.998757476806642,1.8181192016601564
45741,0.7270381164550782,8.956025848388672,1.5078144836425782
45803,1.616488494873047,9.080716552734376,2.309996337890625
45870,0.7247927856445313,10.143057403564454,2.2866448974609375
45940,-1.216520233154297,11.597283325195313,2.332599334716797
46003,2.0652552795410157,8.472980346679687,2.2905368041992187
46070,1.3201048278808594,10.164762268066406,1.1895762634277345
46140,1.3933026123046877,9.058263244628908,0.8746311950683594
46202,0.07514373779296875,8.886270904541016,0.31689102172851563
46270,-0.7315287780761719,8.468040618896485,1.1618838500976563
46340,2.69439697265625,9.830956420898438,2.0389100646972658
46403,1.1790980529785158,8.273744659423828,1.5307168579101564
46470,1.1687695312500002,9.153315582275392,2.647694091796875
46540,1.2460089111328125,9.167536010742188,2.9597950744628907
46603,1.5694862365722657,10.111173706054688,2.4438180541992187
46670,1.2557386779785158,9.209897918701172,2.6634114074707034
46749,1.3537847900390625,10.260413360595704,3.0036538696289066
46803,0.9675878906250001,10.022707672119141,2.7933412170410157
46870,2.146685943603516,9.371262359619141,2.2905368041992187
46940,1.043031005859375,8.398884429931641,2.295476531982422
47003,1.9559825134277344,8.10085418701172,2.1369561767578125
47070,2.3629861450195313,9.648336181640625,2.1930894470214843
47140,2.2113514709472657,9.748477935791016,1.7928218078613283
47203,1.0605445861816407,9.694140930175783,2.57464599609375
47270,0.06631210327148437,9.495204620361328,2.587668914794922
47340,1.7904267883300782,9.911788330078126,1.4567706298828125
47403,-0.6316864013671876,9.451345825195313,1.8088385009765626
47470,0.5906716918945313,9.840985565185548,1.723216552734375
47541,-0.36703674316406254,9.886341247558594,2.545007629394531
47603,0.6617738342285157,10.574909362792969,1.892963562011719
47670,0.6384223937988281,9.258247375488281,1.7824932861328127
47745,1.8654208374023438,9.140142974853516,1.6196319580078127
47803,0.5679190063476562,9.273815002441406,1.572030944824219
47870,1.4235397338867188,9.443711700439454,1.8845809936523439
47940,0.7704478454589844,9.382788391113282,1.8601817321777345
48003,1.2756472778320314,9.660610656738282,1.6886384582519531
48070,-0.14100677490234376,9.722881164550781,2.21539306640625
48143,2.146835632324219,9.135652313232422,1.42024658203125
48203,1.733694763183594,6.722071380615235,0.2477348327636719
48270,-1.4900015258789063,8.807983703613282,2.8577073669433597
48341,-1.2067904663085938,9.41916275024414,2.736160125732422
48403,0.7033872985839844,11.024125213623048,3.073708190917969
48470,0.9360035705566406,10.926228790283204,3.077300720214844
48540,0.629740447998047,8.106242980957031,2.8268714904785157
48603,4.531227264404297,7.204518127441407,1.875000915527344
48670,1.4305751037597656,10.179731140136719,1.5301181030273439
48746,0.19908599853515627,10.807226257324219,2.209106140136719
48803,-0.0077838134765625,9.43877197265625,3.570525054931641
48870,0.7095245361328125,8.993747406005859,2.5786875915527343
48942,1.9468515014648438,8.373137969970703,2.351609802246094
49003,0.45744873046875,9.813891906738283,2.3167323303222656
49070,2.0850141906738284,9.416468353271485,2.429447937011719
49140,0.9779164123535157,10.045759735107422,2.964136047363281
49203,1.3989907836914064,9.414073333740236,2.925516357421875
49270,0.8940907287597657,8.690627746582031,2.5935067749023437
49340,1.858385467529297,9.593550109863282,2.542013854980469
49403,1.5091616821289062,8.797505493164063,2.7406507873535157
49469,0.5545967102050782,9.782606964111329,3.1759455871582034
49540,2.160008239746094,9.714049530029298,2.9199778747558596
49603,0.8696914672851563,9.48472640991211,3.293301544189453
49670,2.189796295166016,10.082583160400391,3.1260992431640626
49744,1.3391152954101564,9.189839630126954,3.3913476562500002
49803,1.3880635070800782,9.308243408203126,3.190465393066406
49870,1.7642312622070313,7.344028015136719,2.681224365234375
49952,1.686991882324219,8.578510894775391,4.002227325439454
50003,0.6349795532226563,9.924511871337891,4.325854339599609
50070,1.0356962585449219,10.536888427734375,4.674479370117187
50140,0.9410929870605469,8.750203857421875,4.105512542724609
50203,1.863025817871094,8.76816650390625,3.464395751953125
50270,2.379302215576172,8.890911254882813,3.8721478271484377
50340,1.602118377685547,9.251062316894531,3.731141052246094
50403,2.1380039978027345,9.374106445312501,3.277284851074219
50470,1.239272918701172,9.112300872802734,2.976859588623047
50541,2.0743862915039064,9.095535736083985,2.0838166809082033
50603,1.179547119140625,9.566306762695312,2.4038511657714845
50670,1.6094531250000002,9.86792953491211,2.306254119873047
50749,0.4064048767089844,9.671238555908204,2.2984703063964846
50803,1.7727635192871094,8.94345199584961,3.6155813598632816
50870,1.5214361572265627,8.884624328613281,3.383563842773438
50940,1.5102095031738283,9.428293762207032,3.4347573852539064
51003,1.746867370605469,9.438173217773437,3.1557376098632814
51069,0.7231462097167969,9.799072723388672,3.34105224609375
51140,1.828447723388672,9.130712585449219,3.1016999816894533
51203,1.0803034973144532,9.087901611328125,3.237467651367188
51270,1.9782861328125,9.023834838867188,2.9650341796875
51340,0.7949967956542969,9.014105072021485,3.1199620056152346
51403,1.5932867431640625,9.497150573730469,3.188818817138672
51470,0.8979826354980469,9.618997192382812,3.37937255859375
51541,1.9303857421875001,9.366322631835938,3.0050010681152344
51603,1.3091775512695314,8.85004623413086,3.2620166015625003
51670,1.549427947998047,9.249715118408204,3.4792149353027346
51749,0.8949888610839845,9.282646636962891,3.171155548095703
51803,0.2915936279296875,9.559570770263672,2.445464630126953
51870,1.4447955322265627,9.101373596191406,1.7892292785644532
51940,0.38455032348632817,9.545200653076172,1.8658699035644533
52003,0.890947265625,9.82526824951172,1.836830291748047
52070,1.086291046142578,9.43682601928711,1.7606387329101563
52140,1.1469149780273438,9.485325164794922,1.7744100952148438
52203,1.5745756530761719,9.193132781982422,1.644031219482422
52270,0.3406915283203125,9.861792297363282,1.7842895507812502
52340,1.4380595397949218,9.120234375,1.5932867431640625
52403,0.4584965515136719,9.903555450439454,1.6893869018554688
52470,1.9235000610351562,9.65866470336914,1.6636404418945314
52540,1.2916639709472657,9.326505432128906,1.4492861938476562
52603,0.6855743408203125,9.732461242675782,1.4548246765136719
52669,1.725312194824219,9.441017303466797,1.3359718322753906
52748,0.6144721984863282,9.815388793945313,1.5356565856933595
52803,1.7884808349609376,9.746681671142579,1.4257850646972656
52870,0.5709127807617188,9.475595397949219,1.4233900451660157
52940,0.8963360595703126,9.720037078857422,1.2323872375488283
53003,1.7994081115722658,9.144783325195313,1.2025991821289064
53070,-0.1579216003417969,9.767937469482423,1.4019845581054688
53141,1.7342935180664063,9.131011962890625,1.1789483642578125
53203,0.6261479187011719,9.8435302734375,1.529070281982422
53270,1.2846286010742187,9.68156707763672,1.3739927673339845
53340,0.9741741943359375,9.143436126708984,1.5614030456542969
53403,0.29189300537109375,9.633966064453125,1.7127383422851563
53470,1.896705780029297,9.61166244506836,1.4530284118652343
53540,0.40730300903320316,9.878707122802735,1.6510665893554688
53603,1.6429833984375002,9.808952178955078,1.6113990783691408
53670,1.0042616271972657,9.450447692871094,1.7616865539550781
53747,0.9928852844238282,9.821526031494141,1.5115567016601563
53803,1.8121316528320313,9.201515350341797,1.2266990661621093
53870,0.3683839416503906,9.459129638671875,1.3434562683105469
53940,1.6241226196289062,9.210047607421876,1.25738525390625
54003,0.34623001098632816,9.80281494140625,1.5167958068847658
54070,1.3311817932128907,9.555229797363282,1.2940589904785156
54140,0.5608836364746094,9.756561126708984,1.4060261535644532
54203,1.2040960693359375,9.510023803710938,1.355431365966797
54269,0.7762857055664063,9.621990966796876,1.3820759582519533
54340,1.0157876586914063,9.484427032470704,1.2731025695800782
54403,1.3299842834472657,9.708960113525391,0.8485853576660156
54470,1.194965057373047,9.065448303222656,0.8948391723632813
54539,0.7842192077636719,9.707912292480469,0.7349716186523438
54602,1.4983840942382813,9.336384887695313,0.9666897583007813
54670,0.6807843017578126,9.881401519775391,0.7737409973144531
54746,0.06825805664062501,9.482930145263673,0.4064048767089844
54803,0.6083349609375001,9.753118286132812,0.8972341918945312
54870,0.738713836669922,10.106683044433595,0.5926176452636719
54954,0.5129832458496094,10.224937133789062,0.9756710815429688
55003,1.0011181640625,9.619146881103516,0.9922865295410157
55070,1.6925303649902346,9.680070190429689,1.1927197265625
55140,0.18336868286132812,9.800719299316407,1.5666421508789063
55203,1.275347900390625,9.556726684570313,1.2654684448242188
55270,0.319735107421875,9.826914825439454,1.49209716796875
55340,0.9623487854003907,9.829459533691407,1.2737013244628907
55403,0.6435118103027344,9.567653961181641,1.3117222595214844
55470,0.40131546020507813,9.327553253173829,1.4051280212402344
55541,1.1470646667480469,9.557774505615235,0.6676116943359376
55603,0.619112548828125,9.013805694580078,0.9274713134765625
55670,1.22625,9.790690155029298,0.8599617004394532
55747,0.07304809570312501,9.706265716552736,1.1485615539550782
55803,-0.45744873046875,9.990524597167969,0.7873626708984376
55870,0.6292913818359376,10.452164611816407,0.8141569519042969
55940,1.2738510131835938,9.339228973388673,0.5548960876464843
56003,0.2552192687988281,9.485325164794922,0.6688092041015625
56070,0.4640350341796875,9.824220428466797,0.6602769470214844
56140,1.1475137329101563,9.567354583740235,0.5697152709960938
56203,0.2788700866699219,9.842332763671875,0.7039860534667969
56270,1.0065069580078125,10.058333587646485,0.45744873046875
56340,0.27497817993164064,9.921667785644532,0.8045768737792969
56403,0.9777667236328126,9.623787231445313,0.5851332092285156
56470,-0.7948471069335938,9.989925842285157,1.0105485534667968
56540,1.8341358947753907,9.025182037353517,0.520916748046875
56603,1.04183349609375,9.641600189208985,0.22662872314453125
56670,0.09864486694335937,9.332492980957031,0.4966671752929688
56740,0.5203179931640626,9.571096801757813,0.3906875610351563
56803,-0.22288650512695313,9.413025512695313,0.7210505676269532
56870,-1.482217712402344,9.696535949707032,0.9954299926757812
56941,-0.23426284790039065,10.390792236328126,1.7546511840820314
57003,0.9478289794921876,10.163115692138673,1.21427490234375
57070,1.8208135986328127,10.183772735595703,0.8973838806152344
57141,-0.3854484558105469,9.699380035400392,0.6177653503417969
57203,-0.9765692138671875,10.272089080810547,0.7643106079101563
57270,1.340911560058594,9.486971740722657,0.8378077697753906
57341,-0.6015989685058594,10.169402618408204,0.35401382446289065
57403,-0.6487509155273438,9.649683380126953,0.25536895751953126
57470,0.276624755859375,9.415420532226562,-0.08247848510742188
57540,-0.17663269042968752,9.413624267578125,0.030386810302734376
57603,-1.2781919860839845,9.587412872314454,0.061372375488281256
57670,-1.3199551391601563,10.164612579345704,-0.4197271728515625
57747,-0.8948391723632813,9.542655944824219,-0.32302825927734374
57803,-1.3705499267578125,10.689570922851564,0.5590873718261719
57870,-1.3058843994140625,10.126142578125,-0.13172607421875002
57940,-1.2326866149902345,9.827812957763673,-0.08637039184570312
58003,-1.3678555297851562,9.829160156250001,0.3088078308105469
58070,-0.18711090087890625,9.29357391357422,1.2853770446777344
58141,0.564027099609375,8.734486541748048,3.0328431701660157
58203,0.678838348388672,9.997410278320313,3.443589019775391
58270,0.6277944946289062,10.213860168457032,2.3797512817382813
58340,-2.0230430603027343,10.47431854248047,0.10762619018554688
58403,-1.725461883544922,9.589807891845703,-2.6864634704589845
58470,-1.1487112426757813,11.314072265625,0.9410929870605469
58541,-0.7390132141113281,11.81418228149414,1.635498962402344
58603,-1.615290985107422,7.658823394775391,-1.9850221252441407
58670,-1.12326416015625,9.49146240234375,-0.0041912841796875
58746,-1.3051359558105469,10.919043731689454,0.5072950744628907
58803,-1.2198133850097657,9.440568237304689,0.13217514038085937
58870,-0.9265731811523438,9.603728942871093,-0.0496966552734375
58941,-1.0674302673339844,10.192454681396486,0.07439529418945313
59003,-1.6102015686035156,9.572144622802735,-0.03906875610351563
59070,-1.0066566467285156,9.569450225830078,-0.3043171691894531
59140,-0.8650511169433595,10.041718139648438,0.011975097656250001
59202,-0.46643005371093754,10.384654998779297,0.15402969360351562
59270,-0.3511697387695313,10.022557983398437,-0.6453080749511719
59340,-0.5514532470703125,9.017847290039063,-1.2025991821289064
59403,-1.3730946350097657,10.321336669921875,-0.4351451110839844
59470,-1.200952606201172,11.394455108642578,0.18037490844726564
59541,-0.5050497436523438,10.189909973144532,0.025746459960937502
59603,-0.15043716430664064,9.350156250000001,-0.19728973388671875
59670,0.3020718383789063,8.94015884399414,1.4555731201171875
59749,0.8665480041503907,9.810748443603517,2.4501049804687502
59803,0.047601013183593756,9.58771224975586,1.7967137145996095
59870,0.7158114624023438,9.535919952392579,1.450184326171875
59952,-0.3998185729980469,8.549321594238283,1.0876382446289063
60003,1.1690689086914063,9.75296859741211,0.2859054565429688
60070,0.6834786987304687,10.017169189453126,1.8233583068847656
60141,0.9195378112792969,10.607391815185547,1.9633172607421876
60203,0.6125262451171876,9.589508514404297,1.0288105773925782
60270,0.08711883544921875,8.301886138916016,1.0328521728515625
60341,-0.6307882690429688,9.013656005859376,1.0321037292480468
60403,-0.3546125793457031,9.958341522216797,2.1640498352050783
60470,1.1044033813476564,10.769504699707031,1.2397219848632812
60540,0.6188131713867188,10.510393524169922,1.1391311645507813
60603,0.3683839416503906,10.180778961181641,0.8568182373046875
60670,1.0940748596191407,9.592202911376953,1.5642471313476562
60741,1.2717553710937501,9.929601287841797,0.5414241027832032
60802,0.7836204528808595,10.60364959716797,0.8840615844726563
60870,1.0970686340332032,9.101672973632812,0.7623646545410157
60940,-1.0300080871582031,8.499026184082032,0.5026547241210938
61003,0.12244537353515626,9.241781616210938,0.760418701171875
61070,0.001047821044921875,9.825417938232423,0.7358697509765625
61141,0.08637039184570312,9.64758773803711,0.3852987670898438
61203,1.9422111511230469,9.720635833740236,-0.12020004272460938
61270,-0.8457412719726562,10.93610824584961,0.3686833190917969
61340,1.0599458312988281,10.04366409301758,0.9479786682128907
61403,0.23725662231445313,10.353819122314453,1.0517129516601562
61470,1.0774594116210938,8.908873901367189,0.4839436340332032
61540,0.053438873291015626,8.594377899169922,0.3944297790527344
61603,0.7662565612792969,10.163864135742188,0.5984555053710938
61669,0.6010002136230469,9.186696166992188,0.585582275390625
61747,0.06780899047851563,9.3453662109375,1.139879608154297
61803,1.1166778564453126,10.06956024169922,1.2988490295410158
61870,-0.5122348022460937,10.21281234741211,1.4136602783203125
61941,-0.7324269104003907,9.78410385131836,1.469194793701172
62002,0.6737489318847657,9.372459869384766,1.3485456848144532
62070,-0.46717849731445316,9.45359115600586,1.7856367492675782
62140,1.1575428771972658,9.546398162841797,0.9142987060546875
62203,-0.317340087890625,9.942324829101564,1.665436706542969
62270,0.6140231323242188,9.663754119873047,1.581910400390625
62340,-0.5227130126953126,10.007738800048829,1.572180633544922
62403,1.0594967651367189,9.308991851806642,0.6950047302246094
62470,-0.06122268676757813,9.83439926147461,2.247576141357422
62541,0.729283447265625,9.383536834716798,1.651365966796875
62603,-0.32108230590820314,9.842931518554687,1.7140855407714846
62670,1.1499087524414062,9.443412322998048,1.6813037109375002
62741,0.0461041259765625,10.044562225341798,1.8133291625976564
62803,0.632135467529297,9.333091735839844,1.5991246032714845
62870,-0.810714111328125,10.058183898925781,1.4302757263183594
62940,1.031205596923828,8.90513168334961,1.278790740966797
63003,-0.7444020080566407,10.406060485839845,1.8001565551757814
63070,1.284778289794922,10.41728713989258,1.780547332763672
63140,-0.590372314453125,9.411378936767578,1.2413685607910157
63203,-0.8297245788574219,9.415121154785156,1.327738952636719
63270,0.24279510498046877,9.962383117675781,1.2778926086425781
63340,0.6572831726074219,9.305698699951172,1.452579345703125
63403,1.1265573120117187,10.003397827148438,1.205892333984375
63470,0.4263134765625,10.024204559326172,1.5536192321777345
63541,0.2721340942382813,9.810748443603517,1.9055374145507813
63603,0.24878265380859377,9.571396179199219,1.210682373046875
63670,-0.15178436279296875,9.082213439941407,1.3689033508300783
63738,0.5776487731933594,9.268126831054689,1.1582913208007812
63803,-0.16525634765625,9.815837860107422,1.846410369873047
63870,0.7114704895019531,9.933792572021485,1.4269825744628908
63940,0.001047821044921875,10.7296875,1.8345849609375
64003,1.1787986755371094,9.820328521728516,1.1629316711425781
64069,0.3541635131835938,8.80498992919922,1.312321014404297
64141,0.32213012695312504,9.806257781982422,1.84177001953125
64203,1.5913407897949219,9.611512756347656,1.3566288757324219
64270,0.03562591552734375,10.064321136474609,1.2687615966796875
64340,0.756826171875,9.865983581542968,1.9205062866210938
64403,-0.08397537231445312,10.065069580078125,2.1032762145996093
64470,0.2794688415527344,8.612639923095703,1.1228150939941406
64541,0.2543211364746094,8.681347045898438,0.9686357116699219
64603,0.6713539123535157,9.954449615478516,1.1301498413085938
64670,-0.3010240173339844,9.67393295288086,1.503772888183594
64741,-0.12364288330078126,9.538015594482422,1.8468594360351565
64803,0.22977218627929688,10.242151336669922,2.039359130859375
64870,0.6206094360351563,10.10788055419922,1.883383483886719
64952,0.7391629028320312,9.435179443359376,2.092798004150391
65003,0.28770172119140625,8.924142150878907,1.7229171752929688
65070,1.32923583984375,10.273436279296876,2.4873774719238284
65140,1.4882052612304688,8.768316192626953,2.0239411926269533
65203,-0.19564315795898438,9.25196044921875,2.3101460266113283
65270,1.0810519409179689,9.840386810302736,2.3213726806640627
65341,0.37077896118164066,9.93020004272461,2.4635769653320314
65403,1.4519805908203125,9.110354919433595,2.0914508056640626
65470,0.4571493530273438,9.697733459472657,1.7881814575195314
65541,1.3421090698242188,9.58771224975586,1.678759002685547
65603,0.41912841796875,9.936636657714844,2.401007080078125
65669,0.6477030944824219,9.933792572021485,2.178419952392578
65738,0.3526666259765625,9.347910919189454,2.246378631591797
65803,0.5080435180664062,9.260941772460939,1.6822018432617187
65870,0.9906399536132813,9.035809936523439,2.1743783569335937
65941,1.0515632629394531,9.598040771484376,2.0437001037597655
66003,1.2277468872070314,9.782906341552735,2.206711120605469
66070,0.7009922790527344,10.00354751586914,2.5131239318847656
66140,0.9620494079589844,9.199569396972656,2.256258087158203
66203,0.22528152465820314,10.05953109741211,2.2969734191894533
66270,1.8672171020507813,9.721683654785156,2.2005738830566406
66340,0.6271957397460938,9.305998077392578,2.211950225830078
66403,0.9157955932617188,9.410331115722657,2.4525
66470,1.5130535888671877,9.526489562988282,3.0394294738769534
66541,-0.08936416625976563,9.530980224609376,2.7003845214843754
66603,1.1780502319335937,8.89315658569336,2.4659719848632813
66670,0.3811074829101563,9.12831756591797,2.8496241760253906
66749,1.3636642456054688,9.335037689208985,2.9731173706054688
66803,0.8861572265625001,9.381441192626953,3.0587393188476564
66870,1.1102412414550782,9.097930755615234,3.0386810302734375
66941,1.2018507385253907,8.724307708740234,3.2388148498535156
67003,0.15058685302734376,9.939630432128906,3.6164794921875
67070,2.2879920959472657,9.500294036865235,3.219804382324219
67140,0.39008880615234376,9.03161865234375,3.4105078125
67203,1.4194981384277345,9.254205780029297,3.203488311767578
67269,2.2537133789062502,9.295669555664062,3.147355041503906
67340,-0.07619155883789062,9.197773132324219,3.1386730957031252
67403,0.9943821716308594,9.314829711914063,2.971171417236328
67470,0.9156459045410157,8.942853240966798,3.1259495544433595
67541,0.5891748046875,9.567055206298829,2.993924102783203
67603,2.033072204589844,9.078620910644531,2.6996360778808595
67670,0.025746459960937502,9.587861938476562,3.0596374511718754
67747,1.9065852355957031,9.33818115234375,2.5200096130371095
67803,1.0377919006347658,9.00856658935547,2.6568251037597657
67870,0.7499404907226563,9.733509063720703,2.539768524169922
67936,2.1811143493652345,9.55178695678711,2.5303381347656253
68003,0.22602996826171876,9.865235137939454,2.824626159667969
68070,1.154249725341797,9.416767730712891,2.4971072387695314
68136,0.5307962036132813,9.275910644531251,2.7092161560058594
68203,1.3654605102539064,9.958191833496095,2.848276977539063
68270,1.8154248046875001,9.392967224121094,2.375410308837891
68337,0.4147874450683594,9.655221862792969,2.564916229248047
68403,1.6926800537109377,9.289083251953125,2.452200622558594
68470,0.027991790771484375,9.810898132324219,2.8060647583007814
68536,0.8234376525878907,9.639354858398438,2.711012420654297
68603,0.42646316528320316,9.288185119628906,2.6797274780273437
68670,1.3394146728515626,9.577832794189453,2.5786875915527343
68738,1.0699749755859376,9.179511108398438,2.652334442138672
68803,0.9379495239257813,9.5178076171875,2.6789790344238282
68869,1.3198054504394532,9.126371612548828,2.645149383544922
68936,0.37018020629882814,9.551188201904298,2.8063641357421876
69003,1.088386688232422,9.358987884521484,2.6123675537109374
69070,0.14025833129882814,9.499695281982422,2.814297637939453
69136,1.4242881774902345,9.402547302246095,2.3040087890625003
69203,0.06346801757812501,9.678872680664062,1.8073416137695313
69270,0.9289682006835938,9.459129638671875,0.8472381591796876
69336,0.5319937133789063,9.395062866210939,0.6500981140136719
69403,0.46792694091796877,9.734706573486328,0.9536668395996094
69470,0.5788462829589844,9.338779907226563,1.5569123840332033
69536,-0.08472381591796875,9.976902923583985,1.828298034667969
69603,1.235830078125,9.243278503417969,1.253792724609375
69670,-0.15417938232421877,9.710007934570314,1.1942166137695314
69737,1.5241305541992187,9.605225830078126,1.2289443969726563
69803,-0.137713623046875,9.667346649169922,1.4766792297363283
69870,0.7673043823242188,9.786798248291015,1.3418096923828127
69952,-0.25536895751953126,9.778565368652345,1.4292279052734376
70003,-0.12978012084960938,9.882149963378907,1.4611116027832032
70070,1.2762460327148437,9.37979461669922,1.3226495361328126
70136,-0.25656646728515625,9.842332763671875,1.4376104736328126
70203,1.3684542846679688,9.560618591308595,1.099463653564453
70270,-0.3323089599609375,9.616602172851563,1.5187417602539064
70336,0.6264472961425781,9.90535171508789,1.38192626953125
70403,0.15597564697265626,9.704768829345703,1.3695021057128907
70470,-0.29294082641601565,9.778565368652345,1.3982423400878907
70536,0.9660910034179688,9.327553253173829,1.251098327636719
70603,-0.05194198608398438,9.710007934570314,1.4329701232910157
70670,1.3165122985839846,9.386829986572266,1.156644744873047
70735,0.4171824645996094,9.461674346923829,1.3549822998046877
70803,0.7638615417480469,9.684111785888673,1.3597723388671876
70870,0.1926493835449219,9.547745361328126,1.4024336242675781
70936,-0.06481521606445313,9.7381494140625,1.45856689453125
71003,1.1720626831054688,9.260642395019532,1.264270935058594
71070,0.10687774658203125,9.72572525024414,1.4543756103515626
71136,1.5612533569335938,9.515412597656251,1.2005035400390625
71203,-0.24474105834960938,9.81673599243164,1.4988331604003906
71270,0.9638456726074219,9.864486694335938,1.3268408203125002
71336,0.2963836669921875,9.739945678710939,1.4063255310058596
71403,1.2014016723632812,9.834698638916016,1.287472686767578
71470,1.0889854431152344,9.377100219726563,1.2591815185546875
71536,0.2908451843261719,9.891580352783203,1.4132112121582032
71603,1.4581178283691407,9.466913452148438,1.2234059143066407
71670,-0.42541534423828126,9.916278991699219,1.4699432373046877
71736,0.689615936279297,9.843230895996093,1.3184582519531252
71803,0.17004638671875,9.658964080810547,1.3846206665039062
71870,0.6376739501953125,9.84592529296875,1.3214520263671876
71936,1.4132112121582032,9.184001770019531,1.1796968078613281
72003,-0.6026467895507813,9.826465759277344,1.4277310180664062
72070,1.064586181640625,9.626481628417968,1.2684622192382813
72137,0.18696121215820313,9.6327685546875,1.4398558044433594
72203,0.9397457885742188,9.865384826660156,1.3127700805664062
72270,1.5690371704101562,9.173972625732423,1.219214630126953
72336,-0.30761032104492186,9.875863037109376,1.5046710205078127
72403,1.380728759765625,9.712253265380859,1.2675640869140625
72470,0.06077362060546875,9.795180816650392,1.4944921875000001
72536,-0.04326004028320313,9.89951385498047,1.4802717590332033
72603,1.2675640869140625,9.28114974975586,1.256038055419922
72670,-0.05254074096679688,9.884544982910157,1.45856689453125
72736,1.4516812133789063,9.63890579223633,1.1784992980957032
72803,-0.4739144897460938,9.927355957031251,1.4492861938476562
72870,0.18830841064453127,9.893077239990236,1.3943504333496095
72936,0.5854325866699219,9.503587188720704,1.2912149047851562
73003,0.26000930786132814,9.785750427246095,1.354233856201172
73070,1.411864013671875,9.237740020751954,1.1567944335937501
73136,-0.5683680725097656,9.796977081298829,1.4702426147460939
73203,1.0126441955566408,9.629176025390626,1.2769944763183594
73270,-0.1239422607421875,9.644444274902344,1.3888119506835939
73336,0.14055770874023438,9.758806457519531,1.4319223022460938
73403,0.8280780029296876,9.326505432128906,1.3465997314453126
73470,0.45116180419921875,9.71854019165039,1.397493896484375
73536,1.4230906677246093,9.291777648925782,1.2145742797851564
73603,-0.13427078247070312,9.735155639648438,1.5001803588867189
73670,1.366208953857422,9.700876922607423,1.2445120239257814
73738,-0.0461041259765625,9.80955093383789,1.479972381591797
73803,1.505419464111328,9.87661148071289,1.2015513610839845
73870,0.6001020812988281,9.62992446899414,1.3663586425781251
73936,0.9229806518554688,9.843380584716797,1.3313314819335937
74003,1.2403207397460938,9.35539535522461,1.2406201171875
74070,0.10927276611328125,9.843380584716797,1.4328204345703126
74136,1.370849304199219,9.571545867919923,1.1823912048339844
74203,-0.2505789184570313,9.842033386230469,1.4892530822753907
74270,1.3808784484863281,9.419911193847657,1.1837384033203127
74336,0.05179229736328125,9.782906341552735,1.4100677490234377
74403,1.101708984375,9.806557159423829,1.2496014404296876
74470,0.8027806091308595,9.421408081054688,1.274300079345703
74536,0.14879058837890627,9.86119354248047,1.3811778259277345
74603,0.5298980712890625,9.314979400634765,1.3175601196289064
74670,-0.4623884582519531,9.739945678710939,1.4471905517578125
74737,1.227447509765625,9.265582122802735,1.2169692993164063
74803,-0.10912307739257814,9.633966064453125,1.4031820678710938
74870,1.2181668090820312,9.54460189819336,1.22385498046875
74952,-0.2636018371582031,9.83724334716797,1.4341676330566406
75003,0.29758117675781254,9.743089141845704,1.4064752197265626
75070,0.7453001403808595,9.352401580810547,1.3265414428710938
75136,-0.30641281127929687,9.827663269042969,1.5000306701660158
75203,1.5724800109863282,9.316326599121094,1.2204121398925782
75270,0.21345611572265627,9.735455017089844,1.4220428466796875
75336,1.2506492614746094,9.766590270996094,1.2805870056152344
75402,0.104183349609375,9.316476287841798,1.253792724609375
75470,0.04655319213867188,9.874665527343751,1.456022186279297
75536,1.146016845703125,9.342971191406251,1.2611274719238281
75603,-0.4501139831542969,9.915081481933594,1.5001803588867189
75670,1.5203883361816406,9.534273376464844,1.1455677795410157
75737,0.42047561645507814,9.593999176025392,1.3295352172851562
75803,0.48334487915039065,9.901759185791017,1.3210029602050781
75870,0.24938140869140626,9.62169158935547,1.3319302368164063
75936,-0.5661227416992187,9.831255798339845,1.464404754638672
76003,1.331481170654297,9.198371887207031,1.2139755249023438
76070,-0.09819580078125001,9.713750152587892,1.3930032348632813
76136,1.2151730346679688,9.587562561035156,1.199755096435547
76203,-0.26854156494140624,9.187594299316407,1.4374607849121095
76270,0.02784210205078125,9.77841567993164,1.4352154541015625
76336,1.0939251708984377,9.371262359619141,1.2750485229492188
76403,-0.28755203247070316,9.807604980468751,1.518292694091797
76470,1.6730708312988283,9.442963256835938,1.1951147460937501
76536,-0.4427792358398438,9.595645751953125,1.5229330444335938
76603,0.6381230163574219,9.837991790771484,1.380579071044922
76670,0.7708969116210938,9.463769989013672,1.31965576171875
76737,-0.5260061645507813,9.974507904052734,1.4450949096679688
76803,1.6407380676269532,9.437275085449219,1.191522216796875
76870,0.21061203002929688,9.554032287597657,1.4061758422851562
76936,0.45984375,9.854906616210938,1.3539344787597658
77002,0.4135899353027344,9.193432159423828,1.3033396911621093
77070,-0.5798941040039063,9.741143188476563,1.437161407470703
77136,1.5160473632812501,9.242979125976563,1.2024494934082033
77203,0.197589111328125,9.56331298828125,1.4319223022460938
77270,0.8428971862792969,9.65147964477539,1.347198486328125
77336,0.298179931640625,9.206006011962891,1.3527369689941406
77402,-0.33141082763671875,9.906549224853515,1.422491912841797
77470,1.5706837463378907,9.13265853881836,1.1900253295898438
77536,-0.005538482666015625,9.874665527343751,1.4874568176269531
77603,1.3900094604492188,9.74817855834961,1.2530442810058595
77670,1.1020083618164063,9.33773208618164,1.3018428039550782
77736,0.2924917602539063,9.89098159790039,1.3994398498535157
77803,0.9524693298339845,9.430988159179687,1.2702584838867188
77870,-0.3674858093261719,9.874665527343751,1.4780264282226563
77936,1.4485377502441408,9.321116638183595,1.1771520996093752
78003,0.026494903564453127,9.795330505371094,1.4124627685546876
78070,1.1169772338867188,9.836943969726564,1.2624746704101564
78136,-0.10508148193359376,9.450447692871094,1.4287788391113283
78203,0.23082000732421876,9.93543914794922,1.3714480590820313
78270,0.47750701904296877,9.622889099121094,1.3548326110839843
78336,-0.3135978698730469,9.72422836303711,1.447789306640625
78403,0.9624984741210938,9.324409790039063,1.2759466552734375
78470,-0.23082000732421876,9.635912017822266,1.4609619140625
78536,1.229543151855469,9.401200103759766,1.2055929565429688
78603,-0.3754193115234375,9.51062255859375,1.4676979064941407
78670,0.8364605712890626,9.670041046142579,1.295555877685547
78737,0.012274475097656251,9.642198944091797,1.4138099670410158
78803,0.15118560791015626,9.73186248779297,1.4444961547851562
78870,0.8996292114257813,9.324709167480469,1.294208679199219
78936,0.3138972473144531,9.775870971679687,1.394051055908203
79003,1.4193484497070312,9.338929595947267,1.1955638122558594
79070,-0.18516494750976564,9.739646301269532,1.4940431213378906
79136,1.3392649841308595,9.75865676879883,1.256187744140625
79203,0.0077838134765625,9.802216186523438,1.4795233154296876
79270,1.442849578857422,9.875863037109376,1.3777349853515626
79336,0.6451583862304687,9.602681121826173,1.3343252563476564
79403,0.8430468750000001,9.864935760498048,1.3597723388671876
79470,1.3864169311523438,9.328900451660157,1.212778015136719
79536,-0.17528549194335938,9.882449340820314,1.4591656494140626
79603,1.2522958374023438,9.704469451904297,1.2222084045410158
79670,-0.3097059631347656,9.905202026367188,1.4627581787109376
79737,0.1878593444824219,9.93499008178711,1.3756393432617189
79803,0.5748046875,9.5178076171875,1.3201048278808594
79870,0.3477268981933594,9.901160430908204,1.354383544921875
79951,-0.47900390625,9.951605529785157,1.5063175964355469
80003,-0.5369334411621094,9.79413299560547,1.4931449890136719
80070,1.3214520263671876,9.62603256225586,1.2413685607910157
80136,-0.09819580078125001,9.674082641601563,1.3724958801269531
80203,1.2076885986328125,9.56286392211914,1.240470428466797
80269,1.0056088256835938,9.268126831054689,1.3073812866210939
80336,0.1986369323730469,9.769584045410157,1.407073974609375
80403,1.651365966796875,9.41197769165039,1.208137664794922
80470,-0.30686187744140625,9.798623657226562,1.5368540954589844
80536,1.5956817626953126,9.857900390625,1.2040960693359375
80603,0.27647506713867187,9.739496612548828,1.4063255310058596
80670,1.2289443969726563,9.802066497802734,1.2862751770019532
80736,1.1876303100585939,9.336833953857422,1.2533436584472657
80803,0.16675323486328125,9.872120819091798,1.420096893310547
80870,0.9710307312011719,9.500144348144532,1.1630813598632812
80936,-0.3423381042480469,9.87990463256836,1.5120057678222658
81003,1.4602134704589844,9.390721893310547,1.1587403869628907
81070,0.055085449218750006,9.777068481445314,1.40587646484375
81136,1.0517129516601562,9.881700897216797,1.2578343200683595
81203,0.9690847778320313,9.279054107666017,1.295555877685547
81270,-0.11870315551757814,9.849368133544923,1.387913818359375
81336,0.9044192504882813,9.36737045288086,1.2954061889648438
81403,-0.5297483825683594,9.76733871459961,1.4431489562988282
81470,1.5293696594238282,9.37365737915039,1.1632310485839845
81536,0.8237370300292969,9.342222747802735,1.3299842834472657
81603,0.27228378295898437,9.809700622558594,1.4096186828613282
81670,1.0678793334960939,9.457632751464844,1.3061837768554687
81736,-0.3706292724609375,9.972112884521485,1.550475769042969
81803,1.7125886535644532,9.55223602294922,1.2286450195312502
81869,0.9053173828125001,9.359586639404297,1.327888641357422
81937,0.19100280761718752,9.90864486694336,1.4587165832519533
82003,1.5886463928222656,9.566606140136718,1.167422332763672
82070,-0.55803955078125,9.973160705566407,1.4699432373046877
82136,1.4579681396484376,9.855056304931642,1.193917236328125
82203,0.7746391296386719,9.316476287841798,1.2906161499023439
82270,-0.11481124877929688,9.849817199707031,1.4054273986816408
82336,1.5724800109863282,9.35255126953125,1.1436218261718751
82403,-0.5843847656250001,9.795779571533204,1.4756314086914064
82470,1.4964381408691407,9.77123062133789,1.1645782470703125
82536,0.5492079162597656,9.440119171142578,1.3382171630859376
82603,0.6273454284667969,9.722432098388673,1.3416600036621094
82670,1.4805711364746095,9.196276245117188,1.2201127624511718
82736,-0.1926493835449219,9.750274200439454,1.4832655334472657
82803,1.4350657653808594,9.66719696044922,1.213077392578125
82870,-0.11645782470703125,9.807604980468751,1.5006294250488281
82936,1.5142510986328126,9.926158447265626,1.2084370422363282
83003,0.5152285766601563,9.715995483398437,1.3497431945800782
83070,1.0677296447753908,9.851014709472656,1.2964540100097657
83136,1.1060499572753906,9.380543060302735,1.2615765380859376
83203,0.30177246093750004,9.883048095703126,1.4138099670410158
83270,0.7939489746093751,9.4603271484375,1.3371693420410158
83336,-0.13995895385742188,9.792935485839845,1.4603631591796875
83403,1.2299922180175782,9.357490997314454,1.2265493774414062
83469,-0.11630813598632814,9.81284408569336,1.4566209411621094
83536,1.3157638549804689,9.607022094726563,1.1906240844726563
83603,0.3926335144042969,9.638606414794923,1.3334271240234377
83670,0.6727011108398437,9.912686462402345,1.3536351013183594
83736,1.093326416015625,9.270372161865234,1.2216096496582032
83803,-0.23785537719726563,9.811945953369142,1.4296769714355468
83870,0.9178912353515626,9.327403564453126,1.2600796508789063
83936,-0.41269180297851565,9.689051513671876,1.4660513305664062
84003,1.3352233886718752,9.351503448486328,1.1515553283691407
84070,-0.4822970581054688,9.517957305908203,1.370998992919922
84136,0.8493338012695313,9.704469451904297,1.3055850219726564
84203,0.085023193359375,9.616153106689454,1.4084211730957032
84270,-0.029937744140625,9.757459259033203,1.46335693359375
84336,1.0535092163085937,9.249116363525392,1.2989987182617189
84403,-0.219144287109375,9.802515563964844,1.5239808654785156
84470,1.579365692138672,9.400301971435548,1.208287353515625
84536,-0.24563919067382814,9.71270233154297,1.5055691528320314
84603,1.1091934204101563,9.843380584716797,1.308728485107422
84670,0.18172210693359375,9.772428131103515,1.4126124572753906
84736,0.0724493408203125,9.883347473144532,1.4165043640136719
84803,1.0518626403808595,9.41332489013672,1.2748988342285157
84870,0.30910720825195315,9.906549224853515,1.4570700073242189
84951,-0.15492782592773438,9.829160156250001,1.5090119934082031
85003,-0.3541635131835938,9.88424560546875,1.4876065063476562
85070,0.9153465270996094,9.89232879638672,1.2768447875976563
85136,-0.05643264770507813,9.824669494628907,1.400936737060547
85203,-0.13995895385742188,9.861343231201172,1.4205459594726564
85270,0.8342152404785157,9.379046173095704,1.2677137756347656
85336,0.03457809448242188,9.696086883544922,1.4801220703125
85403,1.4147080993652343,9.289831695556641,1.1576925659179689
85470,-0.5526507568359376,9.745035095214844,1.4600637817382813
85536,0.8833131408691407,9.698332214355469,1.3365705871582032
85603,0.13516891479492188,9.578880615234375,1.409169616699219
85670,1.054706726074219,9.766141204833986,1.2603790283203125
85736,1.214125213623047,9.207802276611329,1.2723541259765625
85803,-0.003592529296875,9.771080932617188,1.4464421081542969
85870,1.6350498962402344,9.496551818847657,1.2117301940917968
85936,-0.29788055419921877,9.886041870117188,1.5271243286132814
86003,1.6645385742187502,9.873468017578125,1.3801300048828127
86070,0.6063890075683595,9.600884857177736,1.3736933898925783
86136,0.7698490905761719,9.859696655273439,1.385369110107422
86203,1.5684384155273439,9.329798583984376,1.1987072753906252
86270,-0.5141807556152344,9.939929809570312,1.4744338989257812
86336,0.931512908935547,9.848170623779298,1.2798385620117188
86403,-0.03397933959960937,9.782157897949219,1.384021911621094
86470,0.83107177734375,9.8243701171875,1.30528564453125
86536,1.350791015625,9.174721069335938,1.219214630126953
86603,-0.5917195129394531,9.860295410156251,1.4588662719726564
86670,1.2648696899414062,9.5561279296875,1.2461585998535156
86736,-0.13501922607421876,9.704319763183594,1.4281800842285157
86803,-0.085023193359375,9.808652801513672,1.464404754638672
86870,1.2841795349121095,9.171278228759766,1.2588821411132813
86936,-0.08756790161132813,9.908794555664063,1.4582675170898438
87003,1.6928297424316407,9.587412872314454,1.1906240844726563
87070,-0.28096572875976566,9.907746734619142,1.5444882202148438
87136,0.4189787292480469,9.89098159790039,1.4180012512207032
87203,0.8675958251953125,9.429940338134767,1.3361215209960937
87270,0.47975234985351567,9.946366424560548,1.4121633911132814
87336,1.6010705566406251,9.380692749023439,1.1558963012695314
87403,-0.4980143737792969,9.903106384277343,1.4708413696289062
87470,0.8051756286621095,9.90340576171875,1.3001962280273438
87536,0.019908599853515625,9.791438598632814,1.3799803161621094
87603,0.937500457763672,9.837991790771484,1.4235397338867188
87670,1.1102412414550782,9.233399047851563,1.244212646484375
87737,-0.23620880126953125,9.721683654785156,1.431024169921875
87803,1.355431365966797,9.388775939941407,1.1717633056640626
87870,-0.49517028808593755,9.696835327148438,1.47772705078125
87936,0.692010955810547,9.756411437988282,1.3382171630859376
88003,0.20552261352539064,9.581275634765625,1.3894107055664062
88070,0.9798623657226563,9.736652526855469,1.2669653320312502
88136,1.009351043701172,9.294472045898438,1.2852273559570313
88203,0.20252883911132813,9.758956146240235,1.4183006286621094
88269,1.5118560791015625,9.386380920410156,1.227447509765625
88336,-0.22243743896484375,9.75775863647461,1.5018269348144533
88403,1.167721710205078,9.820178833007812,1.30528564453125
88470,0.13516891479492188,9.789941711425781,1.466949462890625
88536,1.3979429626464845,9.72572525024414,1.2410691833496095
88603,0.9653425598144532,9.441166992187501,1.28612548828125
88670,0.42526565551757817,9.887239379882812,1.392554168701172
88736,1.4564712524414063,9.392518157958985,1.1817924499511718
88803,-0.30611343383789064,9.867630157470703,1.482367401123047
88870,1.409468994140625,9.864337005615235,1.1927197265625
88936,-0.14459930419921876,9.84397933959961,1.4531781005859377
89003,1.2515473937988282,9.757459259033203,1.21427490234375
89070,0.7253915405273438,9.46751220703125,1.2734019470214843
89136,0.20582199096679688,9.950408020019532,1.3790821838378906
89203,0.48978149414062505,9.258397064208985,1.188977508544922
89270,-0.48139892578125004,9.754764862060547,1.4464421081542969
89336,1.222507781982422,9.248367919921876,1.197509765625
89403,-0.13457015991210938,9.649533691406251,1.4495855712890626
89470,1.2467573547363282,9.511820068359375,1.2030482482910156
89536,0.8777746582031251,9.327104187011718,1.3141172790527345
89603,0.32482452392578126,9.76584182739258,1.4174024963378906
89670,0.7279362487792969,9.361532592773438,1.3211526489257812
89736,-0.3153941345214844,9.785301361083985,1.5061679077148438
89803,1.5664924621582033,9.258097686767579,1.2283456420898438
89870,0.19714004516601563,9.77736785888672,1.4383589172363282
89951,1.4374607849121095,9.198222198486329,1.2502001953125002
90002,1.1061996459960939,9.367669830322265,1.2808863830566406
90070,0.24504043579101564,9.89816665649414,1.4335688781738283
90136,0.9238787841796875,9.47754135131836,1.3010943603515626
90203,-0.3782633972167969,9.874815216064453,1.4807208251953126
90270,1.4733860778808594,9.35779037475586,1.1515553283691407
90336,0.031734008789062504,9.790091400146485,1.3977932739257812
90403,1.0620414733886718,9.832303619384765,1.2606784057617189
90470,-0.14953903198242188,9.846224670410157,1.4211447143554687
90536,-0.07634124755859376,9.854158172607422,1.4018348693847658
90603,0.751886444091797,9.41482177734375,1.287173309326172
90670,-0.5249583435058593,9.742340698242188,1.4700929260253908
90737,1.37713623046875,9.291627960205078,1.1820918273925782
90803,-0.5887257385253907,9.552834777832032,1.4169534301757813
90870,0.9849517822265625,9.669292602539063,1.2745994567871095
90936,0.11541000366210938,9.610315246582031,1.3988410949707033
91003,-0.21630020141601564,9.847272491455078,1.47772705078125
91070,1.4723382568359376,9.159153442382813,1.2361294555664064
91136,-0.11271560668945313,9.876910858154297,1.4950909423828125
91203,1.5221846008300781,9.730814666748048,1.264270935058594
91270,-0.04894821166992188,9.851912841796876,1.4841636657714845
91336,0.02305206298828125,9.931996307373048,1.4632072448730469
91403,1.1984078979492188,9.304800567626954,1.2793894958496095
91470,-0.5120851135253907,9.925110626220704,1.5063175964355469
91536,1.5106585693359376,9.557325439453125,1.1687695312500002
91602,-0.5011578369140626,9.499695281982422,1.294508056640625
91670,0.30761032104492186,9.948162689208985,1.3706996154785156
91736,0.4992118835449219,9.202712860107422,1.1672726440429688
91803,-0.6162684631347657,9.796677703857423,1.4516812133789063
91870,1.4615606689453127,9.187444610595703,1.148262176513672
91936,0.1359173583984375,9.610315246582031,1.4159056091308595
92003,0.9719288635253907,9.641450500488281,1.2934602355957032
92070,0.1347198486328125,9.646689605712892,1.4150074768066407
92136,-0.24219635009765625,9.827513580322266,1.4641053771972656
92203,1.394051055908203,9.133856048583985,1.238075408935547
92270,-0.13696517944335937,9.866432647705079,1.4997312927246094
92336,1.5852035522460939,9.641300811767579,1.23822509765625
92403,-0.20582199096679688,9.441466369628907,1.5200889587402344
92470,0.5099894714355468,9.88948471069336,1.3907579040527345
92536,0.7469467163085938,9.579179992675781,1.3223501586914064
92603,-0.32287857055664065,9.880952453613281,1.4793736267089845
92670,1.414259033203125,9.288783874511719,1.1864328002929687
92736,-0.15837066650390627,9.881551208496095,1.4215937805175782
92803,1.3010943603515626,9.705816650390625,1.2132270812988282
92870,-0.26839187622070315,9.857151947021485,1.4705419921875
92936,0.43888732910156253,9.957742767333984,1.3665083312988282
93003,0.3050656127929688,9.680070190429689,1.3501922607421877
93070,-0.35835479736328124,9.783954162597658,1.4600637817382813
93136,1.0538085937500001,9.27396469116211,1.249002685546875
93203,-0.17139358520507814,9.665400695800782,1.467099151611328
93270,1.345851287841797,9.388177185058595,1.1427236938476564
93336,-0.4519102478027344,9.713750152587892,1.4977853393554688
93403,0.6638694763183595,9.748777313232422,1.3717474365234377
93470,0.3034190368652344,9.534273376464844,1.3644126892089845
93536,-0.17498611450195314,9.749376068115234,1.488354949951172
93603,1.2771441650390625,9.20690414428711,1.264420623779297
93670,-0.02365081787109375,9.73620346069336,1.4432986450195313
93736,1.580712890625,9.560917968750001,1.2076885986328125
93803,-0.23740631103515628,9.818232879638673,1.5079641723632813
93870,0.7557783508300782,9.890233154296876,1.3451028442382813
93936,0.501756591796875,9.686656494140626,1.3997392272949218
94003,1.0370434570312501,9.86119354248047,1.3060340881347656
94070,1.3022918701171875,9.307794342041015,1.2499008178710938
94136,-0.03308120727539063,9.87750961303711,1.4486874389648439
94203,1.3933026123046877,9.615404663085938,1.1725117492675783
94270,-0.3890409851074219,9.883497161865234,1.487157440185547
94336,0.41074584960937505,9.930349731445313,1.3531860351562501
94403,0.3644920349121094,9.637708282470703,1.323098602294922
94470,0.5397775268554688,9.93109817504883,1.3551319885253907
94536,1.3009446716308595,9.191635894775391,1.1907737731933594
94603,-0.5258564758300781,9.795031127929688,1.4432986450195313
94670,1.2219090270996094,9.581724700927735,1.2536430358886719
94736,-0.24683670043945313,9.69264404296875,1.4313235473632813
94803,1.3001962280273438,9.784702606201172,1.1719129943847657
94869,0.8289761352539063,9.340576171875,1.3250445556640627
94952,1.393751678466797,9.395062866210939,1.1515553283691407
95003,1.6266673278808594,9.311686248779298,1.209335174560547
95070,-0.3339555358886719,9.80805404663086,1.521885223388672
95136,1.565145263671875,9.822274475097657,1.28612548828125
95203,0.17513580322265626,9.783505096435547,1.4567706298828125
95270,1.3663586425781251,9.732610931396485,1.263223114013672
95336,1.0527607727050783,9.407487030029298,1.2675640869140625
95403,0.2697390747070313,9.906100158691407,1.406924285888672
95470,1.542093200683594,9.452992401123048,1.1816427612304687
95536,-0.4153861999511719,9.950557708740234,1.4765295410156252
95603,1.534010009765625,9.847122802734376,1.129401397705078
95670,0.08472381591796875,9.696236572265626,1.4087205505371094
95736,0.7679031372070313,9.829758911132814,1.3141172790527345
95803,1.3742921447753906,9.152118072509767,1.1918215942382813
95870,-0.590372314453125,9.790091400146485,1.4362632751464846
95936,1.496737518310547,9.589957580566407,1.2334350585937501
96003,0.06451583862304688,9.650880889892578,1.4135105895996094
96070,1.0174342346191407,9.64279769897461,1.274150390625
96137,1.5772700500488281,9.161249084472656,1.239272918701172
96203,-0.32227981567382813,9.915380859375,1.5307168579101564
96270,1.3980926513671876,9.785451049804688,1.2986993408203125
96336,0.10029144287109376,9.795480194091798,1.4626084899902345
96403,1.2475057983398439,9.910890197753906,1.2982502746582032
96469,1.393751678466797,9.213191070556642,1.2445120239257814
96536,-0.1920506286621094,9.894424438476562,1.4546749877929688
96603,1.412911834716797,9.695039062500001,1.1750564575195312
96670,-0.41808059692382815,9.94546829223633,1.4901512145996094
96736,1.4135105895996094,9.913135528564453,1.417701873779297
96803,0.689765625,9.407786407470704,1.2747491455078126
96870,0.11316467285156251,9.949060821533203,1.407223663330078
96936,1.4527290344238282,9.262588348388672,1.136436767578125
97003,-0.6014492797851563,9.753267974853516,1.4350657653808594
97070,0.9116043090820313,9.698481903076173,1.30528564453125
97136,0.012124786376953125,9.635163574218751,1.4416520690917969
97203,1.0942245483398438,9.748028869628907,1.2353810119628907
97270,0.889749755859375,9.318422241210937,1.2985496520996094
97336,0.35625915527343754,9.777966613769532,1.4111155700683595
97403,1.3654605102539064,9.282197570800781,1.2473561096191408
97470,-0.09250762939453125,9.693991241455079,1.4566209411621094
97536,1.063089294433594,9.633067932128906,1.2623249816894533
97603,-0.06361770629882812,9.726773071289063,1.490600280761719
97670,1.4456936645507814,9.4124267578125,1.2263996887207032
97736,0.40161483764648437,9.711654510498047,1.3832734680175782
97803,1.152902526855469,9.832153930664063,1.281185760498047
97870,1.114582214355469,9.383985900878907,1.2774435424804689
97936,0.19983444213867188,9.889185333251953,1.4385086059570313
98003,0.9268725585937501,9.5178076171875,1.282383270263672
98069,-0.3632945251464844,9.891730041503907,1.4997312927246094
98136,1.4792239379882812,9.915231170654298,1.1811936950683595
98203,0.031734008789062504,9.79173797607422,1.344653778076172
98270,1.0431806945800781,9.84008743286133,1.2603790283203125
98336,-0.11570938110351563,9.361233215332032,1.2814851379394532
98403,0.0029937744140625003,9.92061996459961,1.3898597717285157
98470,0.6701564025878907,9.492061157226564,1.294508056640625
98536,-0.5158273315429688,9.754914550781251,1.4944921875000001
98603,1.3457015991210939,9.23803939819336,1.1790980529785158
98670,-0.525706787109375,9.592202911376953,1.4081217956542968
98736,1.0701246643066407,9.627978515625001,1.2473561096191408
98803,-0.089813232421875,9.661059722900392,1.4073733520507814
98870,0.018411712646484377,9.789193267822267,1.4462924194335938
98936,0.980760498046875,9.295819244384766,1.2948074340820312
99003,-0.2817141723632813,9.807006225585939,1.505120086669922
99070,1.6401393127441406,9.347012786865236,1.2301419067382813
99136,-0.32108230590820314,9.711205444335938,1.376986541748047
99203,1.0856922912597657,9.820777587890625,1.2925621032714845
99270,0.20836669921875,9.746981048583985,1.4679972839355468
99336,-0.014070739746093752,9.903705139160158,1.4783258056640625
99403,1.1581416320800781,9.358389129638672,1.2674143981933594
99470,0.17079483032226564,9.891580352783203,1.507365417480469
99536,1.488354949951172,9.502239990234376,1.1493099975585939
99603,-0.4195774841308594,9.919422454833985,1.4894027709960938
99670,0.6845265197753907,9.933193817138672,1.3443544006347656
99737,0.11286529541015626,9.237889709472658,1.3516891479492188
99803,-0.3758683776855469,9.797725524902344,1.4214440917968751
99870,1.106349334716797,9.228159942626954,1.2316387939453126
99953,1.0711724853515625,9.790690155029298,1.2552896118164063
100003,1.3630654907226563,9.433682556152345,1.1386820983886718
100070,-0.4822970581054688,9.729617156982423,1.4783258056640625
100136,0.5375321960449219,9.781110076904298,1.3820759582519533
100203,0.45984375,9.487420806884765,1.3283377075195313
100270,0.7171586608886719,9.800419921875001,1.4985337829589844
100336,1.4684463500976563,9.161997528076173,1.2502001953125002
100403,-0.24593856811523437,9.83245330810547,1.4632072448730469
100470,1.483864288330078,9.709109802246095,1.2522958374023438
100536,-0.09624984741210937,9.36647232055664,1.5108082580566407
100603,0.09984237670898438,9.91148895263672,1.423839111328125
100670,1.162781982421875,9.30659683227539,1.28373046875
100736,0.010328521728515625,9.967771911621094,1.44898681640625
100803,1.5263758850097657,9.590406646728516,1.1720626831054688
100870,-0.5306465148925782,9.969418487548829,1.4876065063476562
100936,0.1585203552246094,9.834548950195312,1.3906082153320314
101003,0.6580316162109375,9.345964965820313,1.2629237365722656
101070,0.0449066162109375,9.791887664794922,1.4638059997558595
101136,1.545685729980469,9.275311889648439,1.121018829345703
101203,-0.6589297485351563,9.788145446777344,1.4676979064941407
101270,0.7409591674804688,9.74338851928711,1.3539344787597658
101336,0.4454736328125,9.188043365478515,1.2049942016601562
101403,-0.36164794921875004,9.86313949584961,1.4937437438964845
101470,1.5886463928222656,9.117539978027343,1.2163705444335937
101536,0.06930587768554688,9.814790039062501,1.453926544189453
101603,1.355431365966797,9.776320037841797,1.2669653320312502
101670,0.0484991455078125,9.84592529296875,1.5459851074218751
101736,0.11061996459960938,9.884694671630859,1.420096893310547
101802,1.064735870361328,9.394464111328125,1.2961546325683595
101870,0.3070115661621094,9.904453582763672,1.5543676757812501
101936,1.5380516052246094,9.377100219726563,1.1780502319335937
102003,-0.3469784545898438,9.82960922241211,1.4759307861328126
102070,0.9888436889648438,9.890682220458984,1.251098327636719
102137,-0.061072998046875,9.839937744140625,1.4464421081542969
102203,-0.02724334716796875,9.938133544921875,1.3909075927734376
102270,0.626297607421875,9.530381469726564,1.2966036987304688
102336,0.4423301696777344,9.704469451904297,1.371148681640625
102403,1.1811936950683595,9.244925079345704,1.2311897277832031
102470,-0.3841012573242188,9.787546691894532,1.4389576721191406
102536,1.1856843566894533,9.507179718017579,1.2015513610839845
102603,-0.2890489196777344,9.669741668701173,1.4645544433593751
102670,1.3078303527832031,9.756561126708984,1.4145584106445312
102736,0.4282594299316406,9.469907226562501,1.320853271484375
102803,0.724493408203125,9.68590805053711,1.3377680969238281
102870,1.2808863830566406,9.219627685546875,1.2527449035644531
102936,0.001347198486328125,9.799372100830078,1.4615606689453127
103003,1.5151492309570314,9.57618621826172,1.2340338134765625
103070,-0.22917343139648438,9.811197509765625,1.4901512145996094
103136,1.5405963134765626,9.891131286621095,1.3298345947265626
103203,0.3638932800292969,9.772278442382813,1.3989907836914064
103270,1.1569441223144532,9.828561401367187,1.257534942626953
103336,1.1072474670410157,9.36781951904297,1.289418640136719
103403,0.279019775390625,9.933942260742189,1.4183006286621094
103470,0.6414161682128906,9.383087768554688,1.372196502685547
103536,0.06631210327148437,9.749525756835938,1.4248869323730469
103603,1.026116180419922,9.468110961914062,1.2855267333984375
103670,-0.17977615356445314,9.87271957397461,1.064436492919922
103737,0.7908055114746094,9.386979675292968,0.6747967529296875
103803,-0.10029144287109376,9.775870971679687,0.45385620117187503
103870,1.580563201904297,9.539213104248047,0.27063720703125
103937,-0.11047027587890626,10.446326751708986,0.5995033264160157
104003,-0.9392967224121094,10.659782867431641,0.5276527404785156
104070,1.608255615234375,10.227930908203126,0.3553610229492188
104136,1.289418640136719,9.84592529296875,0.6497987365722656
104203,-0.31255004882812504,10.544821929931642,0.6200106811523438
104270,0.9677375793457031,9.888287200927735,-0.46253814697265627
104336,0.2070195007324219,9.852212219238282,-0.8845106506347656
104403,-0.23516098022460938,10.061027984619141,-0.6295907592773438
104470,-0.10822494506835938,10.028844909667969,-0.8846603393554688
104536,-0.10448272705078125,9.958790588378907,-1.174757080078125
104603,-0.2508782958984375,10.332114257812501,-0.6915618896484376
104670,0.00508941650390625,10.22044647216797,-0.9475296020507813
104736,-0.07828720092773438,9.647737426757812,-0.9589059448242188
104803,-0.36239639282226566,9.828411712646485,-1.3210029602050781
104870,0.04086502075195313,9.745484161376954,-0.8532257080078125
104952,-0.13082794189453126,10.366542663574219,-0.8419990539550781
105003,-0.06346801757812501,10.215506744384767,-1.0300080871582031
105070,-0.14220428466796875,10.030491485595704,-1.117276611328125
105136,0.2321672058105469,10.214309234619142,-0.8379574584960938
105203,-0.13382171630859377,10.610684967041017,-1.4639556884765625
105270,0.39966888427734376,9.448352050781251,-0.7677534484863282
105336,-0.33185989379882813,8.898096313476563,0.0496966552734375
105403,-0.031284942626953124,9.499395904541016,0.7385641479492188
105470,0.8219407653808594,9.800270233154297,0.26734405517578125
105536,-0.6279441833496094,9.951755218505859,-0.25042922973632814
105603,-0.8267308044433594,10.400671691894532,-1.0976673889160158
105670,0.6044430541992187,9.291478271484376,-1.4581178283691407
105736,-0.22947280883789065,9.715396728515625,-0.7571255493164063
105803,-0.3399430847167969,10.38525375366211,0.052690429687500005
105870,0.29713211059570316,11.184142456054689,0.061671752929687504
105936,0.7333250427246094,10.259664916992188,-0.089813232421875
106003,0.49187713623046875,11.063193969726562,-0.14609619140625002
106070,0.16001724243164064,10.529254302978517,-0.24010070800781252
106137,0.5111869812011719,10.753937072753907,-0.47556106567382816
106202,-0.5411247253417969,9.135352935791015,-0.9283694458007813
106270,-1.0496173095703125,9.305249633789064,-0.645457763671875
106336,1.031205596923828,8.934171295166015,-1.2467573547363282
106403,1.9660116577148439,9.429491271972656,-1.4040802001953125
106470,0.2760260009765625,10.17494110107422,-0.4680766296386719
106536,0.25536895751953126,8.910520477294922,-1.638043670654297
106603,-0.6767427062988282,8.308622131347656,-1.450034637451172
106670,-0.9485774230957031,9.365125122070314,-0.15148498535156252
106739,-0.9641450500488282,10.844498748779298,0.0077838134765625
106803,0.42122406005859375,9.320368194580078,-0.3992198181152344
106870,1.6893869018554688,10.03947280883789,-1.2983999633789063
106936,1.6257691955566407,9.085356903076173,0.044307861328125
107003,0.4734654235839844,9.608818359375,-0.35206787109375004
107070,-0.09116043090820312,9.435927886962892,-0.07589218139648438
107136,-0.3737727355957031,11.08265350341797,1.2922627258300783
107203,2.526595916748047,7.169341278076172,0.6616241455078126
107270,-1.7239649963378907,12.264595642089844,1.1543994140625
107336,3.2561787414550785,11.43427230834961,1.217717742919922
107403,1.3636642456054688,12.960049438476563,2.574945373535156
107470,0.5510041809082031,10.947035522460938,2.275118865966797
107536,-0.8484356689453125,8.37298828125,1.0253677368164062
107603,3.493734741210938,6.666985931396485,1.3335768127441407
107670,-2.3727159118652343,7.384893035888672,-1.8601817321777345
107737,-0.3375480651855469,8.147108001708984,-1.7042060852050782
107803,1.2463082885742187,9.558672637939454,1.7756076049804688
107870,-2.1472846984863283,9.862989807128907,2.1742286682128906
107936,-0.44113265991210937,9.606722717285157,2.7283763122558593
108003,-0.40969802856445314,10.17778518676758,1.9395167541503908
108070,0.9153465270996094,9.348359985351562,1.0455757141113282
108136,0.7988887023925781,8.930878143310547,1.1302995300292968
108203,1.0087522888183593,9.423204345703125,0.8434959411621095
108270,0.28096572875976566,9.42006088256836,1.730102233886719
108336,0.5131329345703125,9.564959564208985,1.2516970825195313
108403,0.9428892517089844,9.904603271484376,1.2331356811523437
108470,0.5201683044433594,10.500963134765625,0.26689498901367187
108536,1.8516494750976564,9.095236358642579,1.0621911621093751
108603,-0.6554869079589845,10.156080322265625,-0.18920654296875
108670,-1.511107635498047,9.472751312255859,0.16899856567382812
108736,-0.2082170104980469,10.537487182617188,-0.47496231079101564
108803,-0.17034576416015626,8.857830047607422,-1.4251863098144533
108870,1.3998889160156252,7.993976440429688,-0.3823049926757813
108936,0.9475296020507813,12.483590240478517,-0.38664596557617187
109003,1.9917581176757813,10.820398864746094,-0.08457412719726563
109070,-0.18830841064453127,10.347232818603516,1.3786331176757813
109136,-0.04176315307617188,9.536967773437501,-0.0007484436035156251
109203,0.9545649719238282,9.513915710449218,-0.2650987243652344
109270,1.2304412841796875,11.309581604003906,-0.316142578125
109336,0.8604107666015626,11.400891723632814,-0.0401165771484375
109403,0.14864089965820312,9.986932067871095,0.03113525390625
109470,0.08936416625976563,10.489886169433595,0.11391311645507814
109537,0.5394781494140626,8.58659408569336,-0.21794677734375
109603,-0.2029779052734375,10.493628387451173,-0.6876699829101562
109670,0.3849993896484375,9.299711151123047,-1.3998889160156252
109737,0.647852783203125,9.253607025146485,-0.7563771057128906
109803,1.872755584716797,10.277627563476562,0.5658233642578125
109870,0.3661386108398438,10.562335510253908,0.5867797851562501
109952,-1.3442047119140625,11.65611099243164,0.561482391357422
110003,-0.0622705078125,9.817484436035157,-0.2245330810546875
110070,-0.88855224609375,8.069569244384766,-0.587977294921875
110137,-0.13786331176757813,8.014932861328125,-0.5346881103515625
110203,0.9360035705566406,9.31902099609375,-0.43798919677734377
110270,1.798509979248047,9.531578979492188,0.4866380310058594
110336,0.20372634887695312,9.649833068847657,0.11526031494140626
110403,0.8469387817382813,11.173364868164063,0.4942721557617188
110470,0.45041336059570314,10.462193756103517,0.7743397521972657
110536,2.1237835693359375,11.890972595214844,1.6916322326660158
110603,2.9394374084472656,9.803114318847657,0.6846762084960938
110670,2.2842498779296876,9.258995819091798,-0.4137396240234375
110737,-0.07499404907226563,8.690777435302735,0.4734654235839844
110803,-1.1588900756835938,10.077044677734376,0.6027964782714844
110870,1.824855194091797,9.749376068115234,0.300574951171875
110936,0.8144563293457031,9.2399853515625,0.25357269287109374
111003,0.9497749328613282,8.839867401123048,0.2136058044433594
111069,1.028660888671875,9.239087219238282,0.229921875
111137,0.09041198730468751,8.37867645263672,1.4949412536621094
111203,-0.13397140502929689,8.628656616210938,0.6471043395996094
111270,1.1732601928710937,7.405849456787109,-3.8106257629394533
111336,2.913541259765625,11.385174407958985,3.808829498291016
111403,0.9324110412597657,12.397219848632814,3.4380505371093752
111470,0.05059478759765625,10.24155258178711,4.3330393981933595
111536,0.07379653930664062,2.914589080810547,-1.498982849121094
111603,-0.9756710815429688,7.7372602844238285,1.8268011474609376
111670,1.1094927978515625,11.14297805786133,-0.4044589233398438
111737,0.04266128540039063,8.69347183227539,-0.0628692626953125
111803,-0.15163467407226563,8.271199951171875,-0.386795654296875
111870,-0.6024971008300781,10.458152160644532,1.1395802307128906
111936,0.16630416870117187,11.274554443359376,1.5244299316406251
112003,0.5542973327636719,9.322763214111328,0.8845106506347656
112070,-0.14894027709960939,8.314310302734375,-0.00928070068359375
112136,-0.5801934814453126,9.026529235839844,0.7393125915527344
112203,0.9722282409667969,10.123597869873047,1.1726614379882814
112270,-0.55564453125,9.880204010009766,1.8389259338378907
112336,0.7572752380371094,11.18998031616211,1.1567944335937501
112403,-0.8111631774902344,10.689720611572266,0.6300398254394531
112469,-0.5745053100585937,9.05556884765625,1.2745994567871095
112536,0.3802093505859375,11.624676361083985,1.9546353149414064
112603,0.5483097839355469,10.600057067871095,1.5980767822265627
112669,1.7694703674316408,9.06514892578125,1.2531939697265626
112736,-1.0948233032226562,9.770482177734376,0.7972421264648438
112803,0.18711090087890625,9.886341247558594,1.1264076232910156
112870,-0.015118560791015626,9.44356201171875,0.8195457458496094
112939,0.13397140502929689,9.297316131591797,1.1005114746093752
113003,0.3469784545898438,9.691745910644531,0.7967930603027344
113070,0.49412246704101564,10.334808654785157,1.0678793334960939
113136,-0.024399261474609375,10.468480682373047,1.3693524169921876
113203,0.015118560791015626,9.400601348876954,0.787811737060547
113270,-0.07768844604492188,9.300908660888672,1.3398637390136718
113336,0.02424957275390625,9.200467529296876,1.1169772338867188
113403,0.1011895751953125,9.658964080810547,1.3597723388671876
113470,0.37901184082031253,9.272767181396485,0.7415579223632813
113536,0.5751040649414063,9.654174041748048,1.0074050903320313
113603,0.10059082031250001,9.302255859375,0.841699676513672
113670,0.3303630065917969,9.898765411376953,1.3271401977539063
113736,0.08607101440429688,11.121273193359375,1.5606546020507814
113803,0.34623001098632816,9.977501678466798,1.0955717468261719
113870,0.19249969482421875,9.769584045410157,0.40610549926757816
113936,0.2597099304199219,9.871372375488281,0.49576904296875
114003,1.0689271545410157,9.471553802490234,1.139879608154297
114070,1.2302915954589844,10.638826446533203,1.3669573974609375
114137,0.5529501342773437,9.250164184570313,0.7276368713378907
114203,0.3430865478515625,9.246421966552735,0.5420228576660157
114270,0.9804611206054688,8.863817596435547,0.9662406921386719
114337,0.40236328125000004,10.455158386230469,0.8229885864257813
114403,0.2333647155761719,10.78372512817383,1.2903167724609375
114470,1.355431365966797,8.589587860107422,0.9036708068847656
114536,0.33979339599609376,8.893006896972656,1.2316387939453126
114603,0.7523355102539063,9.476343841552735,1.5643968200683596
114670,0.2734812927246094,9.020990753173828,1.2338841247558594
114736,1.176104278564453,9.282047882080079,1.3370196533203125
114803,1.7286053466796876,9.03206771850586,1.0318043518066407
114870,0.1898052978515625,9.871522064208985,1.9001486206054687
114951,0.8863069152832032,9.63606170654297,1.3055850219726564
115003,0.5941145324707031,9.241931304931642,0.7023394775390626
115070,1.2479548645019531,9.834548950195312,1.1189231872558594
115136,1.5832575988769533,9.303004302978517,1.4187496948242189
115203,0.6233038330078126,9.435029754638672,0.5812413024902344
115270,0.8903485107421876,9.68875213623047,0.7812254333496094
115336,0.7746391296386719,11.979738006591797,2.5557852172851563
115403,1.14242431640625,10.164163513183594,1.82021484375
115470,-0.21540206909179688,10.122699737548828,2.6369165039062503
115536,-0.929267578125,9.758207702636719,1.2581336975097657
115603,-0.007634124755859375,8.894354095458985,0.8583151245117188
115670,0.4926255798339844,9.317823486328125,0.46657974243164063
115736,0.6248007202148438,9.390572204589844,0.8818162536621095
115803,0.6096821594238282,10.995384979248048,0.2442919921875
115870,1.956431579589844,10.048304443359376,0.18935623168945315
115936,2.113155670166016,8.845405883789063,0.9102571105957031
116003,1.4160552978515626,10.774594116210938,0.6548881530761719
116070,2.042801971435547,10.891351318359376,-0.05987548828125
116136,0.5526507568359376,9.739346923828126,0.6324348449707031
116203,0.3561094665527344,9.715845794677735,-0.434696044921875
116270,1.4090199279785156,9.713301086425782,-0.239501953125
116336,1.56873779296875,10.231074371337892,-0.07813751220703126
116403,1.2202624511718752,10.584788818359376,0.6361770629882812
116470,0.7176077270507812,10.785970458984375,0.7762857055664063
116536,1.1129356384277345,10.549911346435547,0.031734008789062504
116603,1.7390835571289063,10.087373199462892,-0.7964936828613282
116670,0.9355545043945312,8.52911361694336,-0.6972500610351563
116737,0.817749481201172,8.707243194580078,-0.5143304443359376
116803,1.0403366088867188,9.555379486083984,0.32841705322265624
116870,1.7131874084472658,8.420888671875,0.31329849243164065
116936,1.3210029602050781,9.52065170288086,0.034727783203125
117003,1.1536509704589843,9.74967544555664,0.017663269042968752
117070,1.4359638977050782,9.59729232788086,0.31210098266601566
117136,2.065704345703125,10.569370880126954,-0.08008346557617188
117203,1.0620414733886718,9.070986785888673,-0.38574783325195316
117270,1.67890869140625,10.167157287597657,0.3141966247558594
117336,1.2892689514160156,9.6327685546875,1.2162208557128906
117403,1.5265255737304688,10.240205383300781,1.4233900451660157
117470,1.4171031188964844,9.315578155517578,0.899329833984375
117537,2.425855407714844,10.426867218017579,1.310973815917969
117603,1.3452525329589844,9.337283020019532,0.4644841003417969
117670,0.49172744750976566,9.527687072753906,1.0960208129882814
117736,1.4715898132324219,9.71270233154297,1.1211685180664064
117803,0.6117778015136719,9.649683380126953,0.7282356262207031
117870,0.38634658813476563,8.906927947998048,0.2185455322265625
117936,0.828527069091797,8.294701080322266,-0.07274871826171875
118003,0.5752537536621094,9.180858306884765,0.2859054565429688
118070,-0.3113525390625,9.069190521240234,1.0075547790527344
118137,0.9333091735839845,10.253377990722656,1.4516812133789063
118203,0.7012916564941407,9.264085235595704,0.5144801330566406
118270,0.40969802856445314,10.501412200927735,1.6061599731445313
118336,0.8523275756835937,9.934241638183595,1.0961705017089844
118403,1.1850856018066407,10.158325653076172,0.961450653076172
118470,0.5230123901367187,8.745713195800782,-0.2677931213378906
118536,0.6879693603515625,10.237960052490235,0.689615936279297
118603,0.6289920043945313,10.688523101806641,1.567240905761719
118670,1.2645703125,9.193581848144532,1.248852996826172
118737,1.5663427734375002,9.499395904541016,0.4153861999511719
118803,-0.1874102783203125,9.055119781494142,-0.1442999267578125
118870,0.276624755859375,8.649463348388672,1.055006103515625
118937,0.4046086120605469,8.901239776611328,1.2713063049316407
119003,1.5962805175781252,10.588531036376954,1.2539424133300783
119070,1.0169851684570312,9.888586578369141,1.0157876586914063
119136,-0.45640090942382816,7.658374328613282,0.0975970458984375
119203,1.3358221435546875,8.953780517578126,0.417930908203125
119270,0.21076171875000002,8.979676666259767,1.175804901123047
119336,-0.18905685424804688,11.088191986083984,-0.15702346801757813
119403,-0.3010240173339844,12.023147735595703,1.385668487548828
119470,1.124461669921875,9.660311279296875,0.1986369323730469
119536,0.6370751953125,8.933722229003907,0.4303550720214844
119603,0.9858499145507813,9.168284454345704,0.1634600830078125
119670,1.3482463073730468,9.771529998779297,0.83107177734375
119737,0.1722917175292969,10.086774444580078,0.868194580078125
119803,0.7946974182128906,10.557994537353515,0.8672964477539062
119870,0.6204597473144532,9.668394470214844,0.8753796386718751
119951,0.9032217407226563,9.588011627197266,0.6767427062988282
120003,1.074166259765625,9.87556365966797,1.1493099975585939
120070,1.6754658508300782,9.475595397949219,1.3180091857910157
120137,0.6367758178710938,8.972042541503907,0.8101153564453125
120203,0.6249504089355469,8.352929992675781,0.4680766296386719
120270,0.7960446166992188,8.96740219116211,1.1038046264648438
120336,0.850082244873047,9.905501403808595,1.5898439025878908
120403,0.6267466735839844,8.89360565185547,1.3690530395507814
120470,1.0030641174316406,9.474996643066406,1.136436767578125
120536,0.5141807556152344,8.82894012451172,0.6280938720703125
120603,1.1635304260253907,8.740025024414063,0.30566436767578126
120670,0.9024732971191407,9.944570159912109,1.474134521484375
120737,1.1382330322265626,9.948162689208985,1.0108479309082032
120802,0.7550299072265625,9.052126007080078,0.6520440673828125
120870,1.397344207763672,9.24282943725586,0.32751892089843754
120937,1.2002041625976563,9.602531433105469,0.3511697387695313
121003,0.8017327880859375,9.596394195556641,0.6078858947753907
121070,0.9490264892578125,9.837542724609376,1.2714559936523437
121137,0.9032217407226563,10.19754409790039,0.8963360595703126
121203,0.9816586303710938,9.748028869628907,0.9654922485351562
121270,-0.1429527282714844,11.466156005859375,1.60226806640625
121337,1.1274554443359375,9.70551727294922,0.8738827514648438
121403,0.2528242492675781,9.40808578491211,0.9195378112792969
121470,0.9696835327148438,8.533005523681641,-0.6542893981933594
121537,0.9351054382324219,10.108778686523438,0.6033952331542969
121603,0.20791763305664063,9.910740509033204,0.3668870544433594
121670,0.47660888671875,9.974807281494142,1.8106347656250001
121737,0.21510269165039064,9.607171783447265,0.32108230590820314
121803,0.7349716186523438,8.721313934326172,0.3848497009277344
121870,-0.08562194824218751,9.762848052978516,1.0487191772460938
121936,0.999920654296875,9.988578643798828,1.121018829345703
122003,0.621507568359375,9.521699523925781,1.21906494140625
122070,0.9382489013671875,9.688452758789063,0.6436614990234375
122136,1.8565892028808595,9.970017242431641,0.4980143737792969
122203,0.056133270263671875,9.158255310058594,0.5911207580566407
122270,1.1731105041503906,9.71988739013672,0.8211923217773438
122337,0.4367916870117188,10.469378814697267,1.6494200134277344
122403,-0.20103195190429687,9.892478485107423,1.2648696899414062
122470,-0.5020559692382813,9.749226379394532,0.9979747009277344
122536,0.22707778930664063,10.538834381103516,1.7128880310058594
122603,1.4162049865722657,10.38525375366211,0.7502398681640625
122670,0.6252497863769532,10.609637145996095,0.8375083923339844
122736,0.6480024719238282,7.691006469726563,0.5034031677246094
122803,0.3841012573242188,8.327782287597657,0.9337582397460938
122870,0.09265731811523438,10.387050018310548,1.294508056640625
122936,1.1325448608398438,10.136321411132814,2.1371058654785156
123003,1.6908837890625001,9.83439926147461,1.7971627807617188
123070,-0.0016465759277343752,8.684191131591797,1.9085311889648438
123136,-0.6746470642089845,8.936865692138673,1.0240205383300782
123203,0.18426681518554688,9.182804260253906,0.8147557067871094
123270,0.5025050354003906,10.161768493652344,1.259630584716797
123336,0.48154861450195313,10.149044952392579,1.8401234436035157
123403,0.3592529296875,10.366991729736329,0.9836045837402344
123470,1.0324031066894532,10.308912506103516,0.7770341491699219
123536,0.046403503417968756,9.962383117675781,1.7348922729492189
123603,1.204545135498047,10.495274963378908,0.8652008056640625
123670,0.9669891357421876,7.934100952148438,-0.013921051025390626
123736,0.27647506713867187,9.573791198730468,0.7934999084472657
123803,0.09774673461914063,11.083551635742188,1.1288026428222657
123870,0.062420196533203125,8.207582244873047,3.0826895141601565
123936,0.5493576049804688,9.843679962158204,1.5106585693359376
124003,-0.5264552307128907,8.854536895751954,1.3597723388671876
124070,1.3835728454589844,9.855205993652344,1.5864010620117188
124137,0.8602610778808594,9.797575836181641,1.7317488098144531
124203,1.5244299316406251,9.714348907470704,1.3955479431152344
124270,0.10987152099609375,9.273665313720704,1.597178649902344
124336,1.044228515625,8.193062438964844,0.6722520446777344
124403,0.681233367919922,10.468480682373047,1.3368699645996094
124470,0.5439688110351563,7.86090316772461,1.8761984252929689
124536,1.5497273254394532,10.56398208618164,1.5009288024902345
124603,1.150657196044922,10.002649383544922,1.876497802734375
124670,-0.3141966247558594,9.400152282714844,1.9839743041992188
124736,0.5906716918945313,10.142758026123047,2.0815713500976565
124803,1.4349160766601563,9.955198059082031,2.1411474609375003
124870,0.6632707214355469,9.848470001220704,1.3705499267578125
124952,1.071471862792969,8.569080505371094,1.3632151794433593
125003,0.1526824951171875,9.662556610107423,1.2768447875976563
125070,0.7217990112304687,10.132728881835938,2.4623794555664062
125136,1.2371772766113283,8.96500717163086,1.3289364624023439
125203,0.48633865356445316,9.217082977294922,1.788929901123047
125270,1.1178753662109375,9.993368682861329,1.4846127319335938
125336,0.83107177734375,9.049281921386719,1.8878741455078125
125403,0.6382727050781251,8.348439331054688,1.1112890625
125470,0.8916957092285157,9.197024688720704,1.22625
125536,0.8114625549316407,9.673783264160157,0.6101312255859376
125603,1.1479627990722656,11.375893707275392,2.3369403076171875
125671,2.036814422607422,10.067913665771485,1.640438690185547
125737,0.8702902221679688,9.931846618652344,1.956581268310547
125803,0.39951919555664067,9.747280426025391,1.1536509704589843
125870,0.02305206298828125,9.797426147460937,1.861828308105469
125936,0.5363346862792969,10.81201629638672,1.350791015625
126003,1.81302978515625,9.574389953613283,0.5595364379882812
126070,0.3143463134765625,8.822204132080078,1.320853271484375
126136,0.9199868774414063,8.700357513427734,1.0192304992675782
126203,0.9816586303710938,9.12697036743164,1.392703857421875
126270,1.2626243591308595,9.955796813964843,2.2805076599121095
126337,2.234403533935547,8.276289367675782,2.338886260986328
126403,0.27333160400390627,9.924212493896485,0.7366181945800782
126470,0.30611343383789064,9.91582992553711,1.1801458740234376
126537,1.3394146728515626,10.419083404541016,1.3395643615722657
126603,-0.26614654541015625,10.303673400878907,1.9498452758789064
126670,0.5833369445800781,11.304492187500001,1.2934602355957032
126738,0.7726931762695313,9.093739471435548,1.2419673156738282
126803,1.4262341308593751,10.552605743408204,2.9560528564453126
126870,0.9032217407226563,10.951226806640626,2.4707620239257815
126936,1.3630654907226563,8.507408752441407,1.1454180908203127
127003,-2.648741912841797,7.734565887451172,0.6001020812988281
127070,0.6318360900878907,8.645721130371093,1.281185760498047
127136,0.6069877624511719,10.245145111083986,1.6003221130371095
127203,0.3209326171875,8.92144775390625,1.4135105895996094
127269,0.8855584716796876,10.326276397705078,1.3120216369628908
127336,1.7580940246582033,9.476194152832031,1.6640895080566407
127403,1.738484802246094,9.864486694335938,0.9313632202148437
127470,0.08457412719726563,10.090366973876954,1.8190173339843752
127536,0.7505392456054688,10.61517562866211,2.3583457946777346
127603,0.6282435607910156,8.914861450195312,1.2301419067382813
127670,0.6207591247558594,10.856024780273438,1.1651770019531251
127737,1.143472137451172,9.71943832397461,1.1204200744628907
127803,0.5324427795410156,9.610614624023437,0.8969348144531251
127870,-0.2805166625976563,9.94980926513672,1.1072474670410157
127936,-0.10867401123046876,9.12697036743164,1.161434783935547
128003,1.1792477416992189,11.146420898437501,1.6830999755859375
128070,0.93884765625,10.31909133911133,1.1834390258789063
128137,0.367635498046875,8.539591827392579,0.2881507873535156
128203,2.4502546691894533,9.16379379272461,0.9602531433105469
128270,0.22842498779296877,11.459120635986329,1.6470249938964845
128336,0.8384065246582032,9.930349731445313,0.9624984741210938
128403,2.459086303710938,11.623778228759766,-0.47301635742187503
128470,1.111139373779297,9.893376617431642,1.2277468872070314
128536,-0.4700225830078125,10.44991928100586,1.600920867919922
128603,0.314945068359375,10.763966217041016,1.6142431640625001
