relative_time,AccX,AccY,AccZ
0,0.9198371887207032,7.986641693115235,5.827381896972657
38,0.5590873718261719,8.246201934814454,4.552483062744141
103,1.1325448608398438,9.454638977050783,4.533322906494141
170,1.5953823852539064,8.626560974121094,4.026476898193359
238,1.9812799072265626,9.059011688232422,4.779111785888672
303,0.9102571105957031,8.44678482055664,5.892496490478516
370,0.5870791625976562,7.608527984619141,4.185146942138672
438,0.4071533203125,9.164392547607422,4.663552093505859
503,0.5920188903808594,7.546856231689453,6.159840545654297
570,0.7258406066894532,6.059399414062501,7.276668090820313
638,1.6266673278808594,6.764882354736328,6.515351257324219
703,0.6878196716308594,6.695127410888672,6.803502044677734
770,0.8674461364746094,7.3832464599609375,6.271807708740234
838,1.7045054626464844,7.353458404541016,6.716383209228516
903,3.064427490234375,6.918013916015625,5.879473571777344
970,1.8817369079589845,6.3583277893066406,6.343807983398438
1038,1.5203883361816406,8.309520263671875,6.845863952636719
1103,1.148411865234375,7.973768463134766,6.5310685729980476
1170,1.0928773498535156,5.465284881591797,6.661297760009766
1238,1.7263600158691408,3.02011962890625,6.4656546020507815
1303,4.375401306152344,6.873556365966797,6.615792388916016
1370,1.0559042358398438,4.194277954101563,9.684261474609375
1438,3.569776611328125,6.4270349121093755,8.815318450927736
1503,2.8659402465820314,5.420827331542969,8.02660858154297
1570,-0.051043853759765626,5.560337219238281,13.224848785400392
1638,2.012714538574219,6.983727264404298,5.919440460205078
1703,1.3714480590820313,6.361620941162109,6.640640716552735
1770,1.1478131103515625,7.319479064941406,5.656736755371094
1838,0.967438201904297,7.610024871826172,6.4426025390625
1903,1.0798544311523437,7.4043525695800785,5.810167694091797
1970,0.7936495971679688,8.11866714477539,6.444249114990234
2038,1.3597723388671876,7.391928405761719,4.827311553955078
2103,0.9924362182617188,7.5190141296386726,5.741759948730469
2170,0.7370672607421875,7.636669464111328,5.5199212646484375
2238,1.3335768127441407,8.92429183959961,5.591472473144531
2303,1.3587245178222658,7.811356201171876,5.97557373046875
2370,1.6890875244140626,6.5976800537109375,7.691605224609376
2437,1.3151651000976563,6.741830291748047,6.774462432861329
2503,0.4912783813476563,7.416477355957031,5.382656707763672
2570,-0.000449066162109375,9.487420806884765,6.044580230712891
2638,0.9930349731445313,8.255033569335938,4.929998016357422
2703,1.533710632324219,6.997798004150391,6.728957061767579
2770,1.1157797241210938,7.498207397460938,6.339317321777344
2838,0.5601351928710938,7.498057708740235,4.841082916259766
2903,0.3297642517089844,8.13303726196289,5.756728820800782
2970,0.9235794067382813,7.858508148193359,4.721182250976563
3038,1.1026071166992188,8.236621856689453,5.922134857177735
3103,1.3224998474121095,7.299271087646485,5.728737030029297
3170,1.5102095031738283,7.610024871826172,5.119803314208984
3238,1.2286450195312502,8.662785644531251,4.518803100585938
3303,0.756826171875,8.376730499267579,6.417305145263672
3370,1.26217529296875,7.4027059936523445,5.457351379394532
3438,1.703757019042969,7.951165466308594,6.297554168701172
3503,1.8510507202148438,7.76989242553711,6.056405639648438
3570,1.6205300903320314,7.906707916259766,6.1787013244628906
3638,1.1343411254882814,7.972570953369141,5.641468505859375
3703,0.5965095520019531,8.249495086669922,5.607040100097657
3770,1.194965057373047,7.097191314697266,5.0674122619628905
3838,1.9365229797363281,7.005132751464844,5.434449005126954
3903,1.5838563537597656,7.102430419921875,7.420518951416016
3970,1.7082476806640625,6.104306030273438,6.169121246337891
4037,1.713486785888672,7.105873260498047,6.4550267028808594
4103,1.5319143676757814,7.988587646484375,6.227948913574219
4170,2.3532563781738283,6.641688537597656,5.405259704589844
4238,2.169738006591797,6.972201232910157,7.6368191528320315
4303,0.7680528259277344,6.800059204101563,7.53039047241211
4370,0.12169692993164063,6.3336291503906255,9.451345825195313
4438,1.2633728027343751,7.792944488525391,4.5918511962890625
4503,0.5770500183105469,9.04598876953125,8.127498779296875
4570,1.206042022705078,6.7509613037109375,5.397475891113282
4638,1.3895603942871095,6.782545623779297,5.385201416015625
4703,1.0788066101074218,7.6561289978027345,6.141578521728516
4770,0.9864486694335938,6.122717742919922,7.013665008544923
4838,1.5022760009765626,6.619534606933594,5.632038116455078
4903,1.466949462890625,8.154143371582032,7.006030883789063
4970,-0.1634600830078125,8.2149169921875,8.348289642333985
5038,0.4064048767089844,6.976242828369141,6.594985656738282
5103,0.5412744140625,9.226064300537109,7.0239935302734375
5169,0.458646240234375,7.492668914794923,6.336024169921875
5238,1.0151889038085937,6.809788970947266,4.512815551757813
5304,0.06631210327148437,8.576265563964844,5.09944564819336
5370,0.37242553710937504,6.8593359375,4.129762115478516
5438,0.5530998229980469,6.594536590576173,6.069727935791016
5502,0.6421646118164063,7.178921356201172,6.330934753417969
5570,0.8711883544921876,7.848778381347657,6.501280517578126
5637,-0.31090347290039066,8.94779296875,6.56280258178711
5703,-0.25656646728515625,9.05841293334961,5.093907165527344
5770,0.12903167724609377,6.660249938964844,5.652096405029297
5838,0.8372090148925782,5.279820556640625,5.416935424804688
5903,1.7106427001953126,5.883964233398438,6.698420562744141
5970,1.2748988342285157,7.845634918212891,4.76893295288086
6037,0.020507354736328125,7.367828521728516,7.641309814453125
6103,0.6248007202148438,6.868916015625,7.88964340209961
6170,0.9451345825195313,6.086942138671875,9.407936096191406
6238,1.2690609741210939,5.8475898742675785,9.59010726928711
6303,0.1722917175292969,5.577701110839844,10.637030181884766
6370,1.0810519409179689,6.210585021972657,5.037923583984376
6438,1.781595153808594,3.6908747863769533,1.064436492919922
6503,2.9355455017089844,4.797523498535156,12.741653594970703
6570,-0.572259979248047,3.2672557067871097,11.572734375000001
6638,-2.7668463134765626,6.6842001342773445,12.031979370117188
6703,-0.32063323974609376,4.595593414306641,6.832691345214844
6770,1.0774594116210938,5.751789093017578,5.790259094238282
6838,2.727627868652344,8.477770385742188,6.480623474121094
6903,2.0853135681152346,7.526947631835938,4.109105072021484
6970,1.041683807373047,7.678282928466797,5.404511260986329
7038,1.537452850341797,6.34201171875,4.1920326232910154
7103,2.6165588378906253,5.526208190917969,4.349505157470704
7170,2.8840525817871097,3.6679724121093753,5.549559631347656
7238,3.686084747314453,-0.7298822021484376,7.4431219482421875
7303,-1.853445739746094,-0.16241226196289063,13.93137954711914
7370,-1.6292120361328126,-2.1124072265625,11.755055236816407
7438,-1.79865966796875,-3.7374279785156252,15.42826675415039
7503,-0.9259744262695313,3.900139617919922,11.499536590576172
7570,-5.436095581054688,3.6045043945312503,11.420650634765625
7638,0.5890251159667969,3.1687605285644533,5.361251220703125
7703,5.071154479980469,4.459226989746094,1.7871336364746095
7770,1.5007791137695314,2.29921875,11.766581268310548
7838,4.244723052978516,7.486681365966797,8.80783401489258
7903,0.7720944213867188,4.274960174560547,10.064021759033203
7970,-1.56873779296875,6.068680114746094,4.4614723205566404
8038,1.344653778076172,6.475384368896485,6.790928192138672
8103,0.39113662719726566,8.523425445556642,6.416556701660157
8170,-0.6237528991699219,5.308261413574219,1.4735357666015625
8238,-0.5420228576660157,9.23953628540039,1.5179933166503907
8303,-3.109783172607422,11.711346130371094,1.9037411499023438
8370,-2.4539968872070315,9.963430938720704,0.3549119567871094
8438,-2.8373497009277346,6.912924499511719,0.096998291015625
8503,-1.9778370666503908,8.503666534423829,-1.522034912109375
8570,-0.08592132568359376,9.46077621459961,1.149609375
8638,-2.2336550903320314,10.000553741455079,1.7558486938476563
8703,-2.0212467956542968,7.877967681884766,-0.6327342224121094
8770,0.33365615844726565,13.069022827148439,2.3381378173828127
8838,1.1241622924804688,9.067693634033203,-3.8043388366699222
8903,-2.5472529602050784,10.359058227539062,0.5548960876464843
8970,0.057779846191406255,10.421777801513672,1.9633172607421876
9038,-2.401755523681641,10.004595336914063,0.95082275390625
9103,-0.5074447631835938,8.995244293212892,0.4525090026855469
9170,-1.7181271362304689,9.10152328491211,2.4830364990234375
9238,-2.0350181579589846,8.631500701904297,0.8617579650878907
9303,-1.2551399230957032,9.984986114501954,2.642604675292969
9370,-1.0232720947265626,9.573791198730468,2.751727752685547
9437,-1.11847412109375,8.846453704833985,1.9850221252441407
9503,-0.5662724304199219,9.610914001464844,1.7944683837890625
9570,-0.5501060485839844,8.422235870361328,3.074157257080078
9637,-2.302511901855469,8.487051086425781,1.5239808654785156
9703,-0.19190093994140625,10.065518646240236,1.0304571533203126
9770,-1.357826385498047,10.240355072021485,2.175426177978516
9837,-0.7223977661132813,9.775122528076173,1.4938934326171875
9903,-0.307760009765625,9.328002319335939,2.373314666748047
9970,-0.8530760192871094,10.088720397949219,2.168839874267578
10038,-0.8845106506347656,9.621990966796876,0.16899856567382812
10103,-1.1564950561523437,8.06687484741211,1.302591247558594
10170,5.868546295166016,9.556876373291017,-2.184108123779297
10238,-1.7407301330566407,7.673343200683594,1.3837225341796875
10303,2.4742048645019534,8.869954833984375,1.7528549194335938
10370,1.1780502319335937,9.009165344238282,1.8103353881835937
10438,-2.1969813537597656,10.427765350341797,2.366129608154297
10503,0.2950364685058594,9.706415405273438,1.9127224731445314
10570,0.869242401123047,11.160940704345704,-0.1381626892089844
10638,1.5503260803222656,10.064919891357423,1.2015513610839845
10703,0.5996530151367188,9.923464050292969,0.760418701171875
10770,0.41508682250976564,10.306667175292969,2.2740710449218753
10838,0.9298663330078125,9.999805297851562,1.578168182373047
10903,-5.006788330078125,8.120613098144531,-0.23306533813476563
10970,1.0174342346191407,7.6305322265625,0.4409829711914063
11038,-0.09370513916015626,5.922134857177735,2.859503631591797
11103,0.5351371765136719,9.05556884765625,2.424657897949219
11170,-1.162781982421875,10.798244934082032,3.129991149902344
11238,1.6045133972167969,12.063114624023438,1.3115725708007813
11303,-1.3308824157714845,12.610825653076173,2.705324249267578
11369,-0.8985813903808594,11.332184600830079,1.423988800048828
11438,0.07619155883789062,7.663912811279297,1.0785072326660157
11503,-0.21944366455078126,10.180629272460939,0.33066238403320314
11570,0.6649172973632813,9.472751312255859,0.9767189025878906
11638,-0.8562194824218751,9.82960922241211,1.4814692687988282
11703,-0.705333251953125,7.845634918212891,1.6842974853515627
11770,1.8868263244628907,10.529703369140625,0.6090834045410156
11837,-1.4187496948242189,8.266409912109376,2.927611999511719
11903,-1.418899383544922,9.14029266357422,2.2733226013183594
11970,-0.9705816650390625,10.980715484619141,4.124373321533203
12040,0.5849835205078125,9.322912902832032,1.137783966064453
12105,0.2281256103515625,9.008267211914063,2.142195281982422
12170,0.4327500915527344,8.727451171875,1.2162208557128906
12238,0.38619689941406254,9.613309020996095,1.542093200683594
12304,0.28380981445312503,9.4507470703125,2.255958709716797
12370,0.044008483886718755,11.04627914428711,3.171005859375
12438,1.0404862976074218,10.231224060058594,2.9752130126953125
12503,-0.7439529418945313,8.428822174072266,0.24189697265625001
12570,0.16989669799804688,10.510094146728516,0.37511993408203126
12638,-1.0349478149414062,8.540789337158204,1.4256353759765625
12703,-1.028511199951172,8.39409439086914,3.413052520751953
12770,3.138523406982422,10.452463989257813,0.5117857360839844
12838,0.3246748352050781,10.128687286376953,1.48251708984375
12903,-1.1490106201171875,9.512867889404298,2.848426666259766
13019,-0.08158035278320312,10.494077453613281,1.153201904296875
13037,0.9116043090820313,10.64107177734375,2.793640594482422
13149,-1.3810281372070312,9.614805908203126,1.9276913452148439
13171,0.6560856628417969,9.133257293701172,1.3838722229003908
13247,-0.8898994445800782,8.16177749633789,3.1424153137207034
13314,-1.4265335083007813,9.665550384521485,1.8377284240722658
13369,-0.7942483520507813,9.139244842529298,3.70988525390625
13440,3.323838043212891,11.909234619140626,4.032165069580079
13503,1.7736616516113282,8.746910705566407,-1.7497114562988283
13569,0.00449066162109375,10.129585418701172,-0.35715728759765625
13638,-1.4483880615234375,11.02711898803711,1.235830078125
13703,0.28380981445312503,10.833870849609376,1.0659333801269533
13772,0.7940986633300782,9.667945404052736,0.4608915710449219
13841,0.6035449218750001,9.138945465087891,1.598525848388672
13903,0.43604324340820316,9.430539093017579,1.9562818908691406
13970,0.39712417602539063,9.308991851806642,1.5875985717773438
14039,-0.6240522766113281,9.699080657958985,2.8265721130371095
14103,3.2063323974609377,10.043514404296875,2.9608428955078128
14170,-0.5566923522949219,9.707912292480469,2.574945373535156
14237,0.4942721557617188,9.314081268310547,2.0639080810546875
14303,-0.09430389404296875,9.98528549194336,2.41178466796875
14370,0.005538482666015625,10.26071273803711,2.485880584716797
14438,-0.718505859375,10.436746673583984,1.8022521972656251
14503,-0.8128097534179688,9.206155700683594,1.5148498535156252
14569,-0.3254232788085938,8.775201873779297,1.1153306579589843
14638,0.16001724243164064,10.456056518554687,0.6111790466308594
14703,-1.3187576293945313,8.354875946044922,2.221380615234375
14770,-0.6325845336914063,9.809101867675782,2.116748199462891
14840,-0.5950126647949219,11.051967315673828,2.0246896362304687
14903,1.0996133422851564,11.475137329101564,1.623673553466797
14973,0.05703140258789063,10.146799621582032,1.4302757263183594
15039,0.520767059326172,10.633437652587892,1.2844789123535156
15103,-0.5602848815917969,9.638456726074219,0.5519023132324219
15170,0.4543052673339844,9.063053283691406,0.9307644653320313
15238,-0.7673043823242188,10.7296875,1.7413288879394533
15303,-1.0072554016113282,10.671458587646486,2.0736378479003905
15370,-1.1127859497070314,9.880802764892579,1.8241067504882813
15439,0.24923171997070315,8.52866455078125,1.3398637390136718
15504,-1.3936019897460938,8.48405731201172,0.42706192016601563
15570,-1.1816427612304687,9.255552978515626,0.8737330627441406
15638,-0.1866618347167969,9.642348632812501,2.9187803649902344
15703,-0.6090834045410156,10.560539245605469,2.5867707824707034
15770,-0.19639160156250002,9.821076965332031,1.9441571044921877
15840,-0.4248165893554688,9.177565155029297,1.3916560363769532
15903,0.25117767333984375,9.009165344238282,1.5232324218750002
15970,-0.99393310546875,9.196575622558594,1.7128880310058594
16039,0.188009033203125,9.986632690429689,2.921624450683594
16103,0.14534774780273438,9.881251831054689,2.667902069091797
16169,0.25357269287109374,9.295370178222656,1.7019607543945314
16239,0.35625915527343754,8.985065460205078,2.611469421386719
16303,1.7994081115722658,9.09284133911133,1.1451187133789062
16370,0.1389111328125,9.252708892822266,2.7165509033203126
16440,-0.14340179443359377,9.517657928466797,1.9344273376464844
16503,-0.032332763671875,10.179731140136719,1.768721923828125
16570,-0.17274078369140625,9.599837036132813,0.8988807678222657
16641,0.21076171875000002,9.016200714111328,2.604733428955078
16703,0.6146218872070313,9.243278503417969,0.8619076538085938
16770,-0.48259643554687504,8.709338836669922,0.9467811584472656
16839,-0.04266128540039063,9.67917205810547,1.5730787658691407
16903,-0.4698728942871094,9.51631072998047,2.4263044738769532
16970,-0.7147636413574219,10.652148742675783,3.296744384765625
17039,0.48035110473632814,9.589658203125001,3.4395474243164066
17104,0.00748443603515625,9.662107543945313,2.1321661376953127
17170,0.4471202087402344,9.806557159423829,0.4463717651367188
17239,-0.5129832458496094,9.163195037841797,0.6647676086425781
17304,-0.16735198974609375,9.79847396850586,2.451452178955078
17370,-0.39847137451171877,10.045610046386718,2.118394775390625
17440,0.8175997924804688,10.378368072509765,2.2519171142578127
17503,-0.041164398193359375,9.76539276123047,2.7030789184570314
17570,0.30147308349609375,9.619745635986328,1.6766633605957033
17641,-0.5933660888671876,9.989027709960938,1.4314732360839844
17703,-1.510059814453125,8.29679672241211,0.7235952758789063
17770,0.19190093994140625,9.34491714477539,0.4843927001953125
17841,-0.19414627075195315,9.233249359130859,2.303859100341797
17904,0.010328521728515625,9.302106170654298,1.0924282836914063
17970,-0.5782475280761719,8.922046508789062,1.7281562805175783
18039,-1.0768606567382812,9.128467254638672,2.154170379638672
18104,0.07873626708984376,9.490414581298829,2.2866448974609375
18170,-1.0053094482421876,9.636959838867188,2.4131318664550783
18239,0.4746629333496094,9.941426696777345,2.165846099853516
18303,-0.9352551269531251,9.134903869628907,1.8058447265625002
18370,-1.3727952575683595,9.323960723876954,1.9285894775390626
18441,-0.7933502197265625,9.18055892944336,2.0471429443359375
18504,0.6132746887207031,9.194479980468751,1.031205596923828
18570,-2.356399841308594,9.646689605712892,2.3165826416015625
18637,2.6135650634765626,8.365952911376954,1.0545570373535156
18703,-0.2763253784179688,9.06320297241211,0.610580291748047
18770,0.13442047119140627,9.559121704101562,3.826792144775391
18838,-0.26300308227539065,9.751771087646485,3.3343162536621094
18904,0.11735595703125,9.707163848876954,-0.508941650390625
18970,0.6527925109863282,9.007518768310547,1.733844451904297
19039,-0.7132667541503906,9.39221878051758,0.9422904968261719
19103,-1.6664845275878908,8.415350189208985,6.228248291015626
19170,-0.06930587768554688,9.890382843017578,-3.988605651855469
19239,-0.30686187744140625,9.094487915039062,-1.1624826049804688
19304,-0.8047265625000001,10.578052825927735,2.1859043884277343
19370,-0.43379791259765627,9.455088043212891,1.0282118225097656
19441,0.7399113464355469,9.289981384277345,1.1777508544921875
19504,-1.6423846435546876,7.721692657470704,0.06062393188476563
19570,1.4828164672851563,10.338700561523439,0.13202545166015625
19639,-1.7750088500976564,9.583670654296876,0.5513035583496094
19703,2.6033862304687503,10.756631469726564,2.369871826171875
19770,0.9601034545898438,10.150841217041016,0.7598199462890626
19840,-1.1415261840820312,8.943901062011719,0.49636779785156254
19904,-0.6719526672363282,10.794203338623047,2.297871551513672
19973,-0.018112335205078125,8.716673583984376,0.31719039916992187
20039,15.048356781005861,10.604847106933594,-0.16390914916992189
20103,-2.4113356018066407,10.70768325805664,-0.09265731811523438
20170,0.8000862121582032,6.4180535888671875,3.4579591369628906
20238,-0.3429368591308594,9.842931518554687,2.188748474121094
20303,-0.40954833984375,9.421108703613282,0.6164181518554688
20370,-0.04086502075195313,9.980345764160157,1.8015037536621095
20441,1.044228515625,10.828631744384767,2.558479614257813
20504,0.12588821411132814,10.756332092285156,0.3656895446777344
20571,1.0837463378906251,8.490344238281251,-1.1526031494140625
20640,2.1438418579101564,9.23848846435547,-0.5251080322265625
20704,4.2583447265625,9.91343490600586,-1.4413526916503907
20770,3.636388092041016,8.97309036254883,-0.031284942626953124
20841,2.701731719970703,8.72505615234375,0.3320095825195313
20903,1.8654208374023438,9.454040222167968,-0.69216064453125
20970,2.4968078613281253,9.032367095947267,-0.2465373229980469
21044,3.3153057861328126,9.507030029296876,0.42706192016601563
21104,1.631906433105469,11.444301452636719,1.4295272827148438
21170,3.619772644042969,10.810968475341797,0.34099090576171875
21241,3.489393768310547,8.770262145996094,-1.393751678466797
21304,2.286195831298828,8.663534088134766,-1.542392578125
21370,2.645299072265625,10.566227416992188,2.181563415527344
21441,1.7357904052734376,8.446186065673828,0.569864959716797
21504,0.9231303405761719,6.499484252929688,-0.022602996826171878
21570,2.538571014404297,13.693823547363282,4.128115539550781
21638,3.4048196411132814,9.795929260253907,1.8203645324707032
21704,4.327351226806641,9.25196044921875,-0.43619293212890625
21770,3.514541473388672,8.973389739990235,-0.7110214233398438
21840,1.3129197692871095,8.796757049560547,0.8919950866699219
21904,3.8300852966308594,9.745035095214844,1.3233979797363282
21970,1.9172131347656252,8.887169036865235,0.01526824951171875
22041,0.9454339599609376,10.366243286132812,0.8616082763671875
22103,3.8309834289550784,7.869136047363281,1.539847869873047
22170,2.9701235961914065,9.525591430664063,1.2021501159667969
22238,1.9919078063964846,8.682694244384766,1.084644470214844
22304,1.6552578735351564,9.536967773437501,-0.5071453857421875
22370,2.6171575927734376,7.951764221191406,0.846639404296875
22441,5.123096466064453,9.640851745605469,1.6211288452148438
22504,2.0880079650878907,10.547067260742189,1.7941690063476563
22570,3.7818855285644535,8.352181549072267,0.04146377563476563
22638,2.222727813720703,9.074878692626953,0.4071533203125
22704,1.948198699951172,8.920250244140625,0.6843768310546875
22770,2.9527597045898437,9.058113555908204,-0.19983444213867188
22841,3.374133453369141,10.189161529541016,1.4672488403320314
22903,3.160228271484375,8.314609680175781,-1.3115725708007813
22970,-1.2463082885742187,11.586206359863281,1.5161970520019532
23039,-0.20731887817382813,9.789342956542969,1.8634748840332032
23103,2.3644830322265626,9.9680712890625,1.8914666748046876
23170,0.7044351196289063,9.262588348388672,-1.8628761291503908
23239,4.4457550048828125,6.356232147216797,-1.3742921447753906
23303,4.4650648498535155,8.27329559326172,1.00351318359375
23371,6.3108764648437505,12.142449645996095,-0.12843292236328124
23441,2.5400679016113283,10.237061920166017,-0.07020401000976563
23504,-3.3988320922851565,10.194999389648437,1.4546749877929688
23570,1.3413606262207032,9.962233428955079,0.7541317749023438
23641,2.1145028686523437,10.62715072631836,2.1776715087890626
23703,2.2516177368164065,8.53824462890625,-1.171014862060547
23770,-2.9642857360839847,9.987231445312501,2.4496559143066405
23840,1.1343411254882814,9.448950805664063,3.381468200683594
23904,-0.15896942138671877,11.910432128906251,4.5214974975585935
23970,0.7702981567382813,5.828878784179688,1.0618917846679687
24040,1.3751902770996094,8.684640197753907,3.943100280761719
24103,1.3537847900390625,9.513616333007812,3.0961614990234376
24170,1.8182688903808595,9.33054702758789,2.479893035888672
24239,-1.354383544921875,12.199780426025391,2.822231140136719
24304,-0.03742218017578125,11.702364807128907,6.810986480712891
24370,4.0213874816894535,6.909182281494141,0.059725799560546876
24439,7.361092529296875,9.117539978027343,-0.019010467529296877
24504,4.554129638671875,9.765692138671875,0.6185137939453126
24570,2.631827087402344,9.703571319580078,3.1819331359863283
24640,0.6004014587402344,8.335715789794921,1.766177215576172
24703,2.543361053466797,9.524393920898438,2.332599334716797
24771,3.0790969848632814,8.891060943603517,1.214424591064453
24840,3.3823663330078126,11.203751678466798,1.4684463500976563
24903,1.0530601501464845,8.982071685791016,1.4977853393554688
24970,2.717898101806641,10.710377655029298,3.600612487792969
25038,3.785028991699219,8.6268603515625,0.9220825195312501
25104,1.8047969055175783,7.856562194824219,0.7491920471191407
25170,0.19429595947265627,10.530601501464844,3.4185910034179687
25238,3.5772610473632813,9.942025451660157,2.2112017822265626
25303,1.4028826904296876,9.350305938720703,2.630779266357422
25370,1.4087205505371094,8.843010864257813,1.157991943359375
25439,0.17992584228515626,10.622660064697266,4.015699310302734
25504,2.124232635498047,10.494825897216797,0.6036946105957032
25570,2.440375213623047,9.070837097167969,-0.044756927490234376
25640,2.412982177734375,9.63082260131836,-0.11585906982421876
25703,2.076332244873047,10.109078063964844,-0.192799072265625
25770,0.0032931518554687503,9.144933013916017,-2.2239253234863283
25840,2.4179219055175785,9.681866455078126,0.05313949584960938
25903,0.7358697509765625,9.700727233886719,-1.2036470031738282
25971,0.2935395812988281,10.798394622802736,-0.03787124633789063
26040,2.758014678955078,9.932445373535156,0.03936813354492188
26103,2.8993208312988283,9.05407196044922,-1.8639239501953127
26170,2.077529754638672,9.490414581298829,-0.6312373352050782
26241,3.8300852966308594,8.941206665039063,-0.9258247375488282
26303,1.7354910278320312,8.112230529785156,-2.381547546386719
26371,3.0554461669921875,9.203012237548828,1.1572434997558594
26440,7.878566436767579,11.64892593383789,3.9231916809082032
26504,7.180118865966797,6.919660491943359,0.6081852722167969
26570,3.4660423278808596,4.866979064941407,2.6589207458496094
26640,-1.4028826904296876,9.904603271484376,3.1117291259765625
26703,-8.788973236083985,13.803695068359376,2.3209236145019534
26771,1.366208953857422,8.827293548583985,2.7222390747070313
26840,-1.6133450317382814,11.038345642089844,0.6083349609375001
26904,-0.8611592102050781,7.965685272216797,0.536484375
26970,-1.91841064453125,10.073003082275392,-0.5697152709960938
27039,0.4183799743652344,10.271190948486328,1.1138337707519532
27104,1.7259109497070313,8.609197082519533,-0.08696914672851563
27170,1.8106347656250001,11.393107910156251,0.16031661987304688
27239,0.5110372924804688,9.5848681640625,-1.0624905395507813
27304,-0.07768844604492188,9.721533966064454,2.4269032287597656
27370,-0.8096662902832031,11.946058044433594,0.46762756347656254
27440,1.921853485107422,10.82354232788086,-3.549119567871094
27504,-2.3179298400878907,11.23832977294922,-0.9601034545898438
27570,-1.36037109375,8.585995330810547,0.42421783447265626
27640,0.20686981201171875,9.013506317138672,-0.9225315856933595
27704,1.1695179748535156,9.361532592773438,-1.1439212036132813
27770,-0.9139993286132813,8.889564056396484,0.6836283874511719
27841,-1.5028747558593751,9.282347259521485,1.5970289611816406
27903,-1.991458740234375,11.104358367919922,-3.7029995727539062
27970,-0.9223818969726563,11.019784240722657,-5.033582611083984
28041,-2.1436921691894533,8.36101318359375,-2.737357635498047
28104,-2.7390042114257813,9.309740295410156,-2.1499790954589844
28170,-0.6740483093261719,11.091185760498048,-4.689298553466797
28240,-0.4165837097167969,10.634934539794923,-1.0621911621093751
28303,-1.9549346923828126,9.435778198242188,-2.0133132934570312
28370,-1.7797988891601564,9.298214263916016,-3.2265403747558596
28439,-2.8804600524902346,9.212742004394531,-1.8591339111328127
28504,-2.4242088317871096,6.201903076171876,-4.1799078369140625
28571,-1.8446141052246094,9.122180328369142,-4.3577380371093755
28641,-2.3930735778808594,11.03190902709961,-3.6619848632812504
28704,-1.8612295532226564,11.489806823730468,-4.723577270507813
28771,-4.059408416748047,9.224717102050782,-5.629643096923829
28840,-3.0743069458007812,8.035440216064453,-3.08718017578125
28903,-1.3690530395507814,8.634793853759765,-3.2027398681640626
28971,2.8397447204589845,15.612832946777344,-0.5298980712890625
29040,-0.7801776123046875,6.808441772460938,-2.5538392639160157
29104,-2.396217041015625,10.390941925048828,-2.638413391113281
29170,-1.6259188842773438,10.76755874633789,-2.3462210083007813
29240,-2.558629302978516,7.871231689453126,-3.5498680114746097
29303,0.8378077697753906,12.092303924560548,-3.315754852294922
29371,1.391356658935547,8.339607696533204,-1.7977615356445313
29440,-1.1358380126953125,7.652237091064453,-3.134481811523438
29504,2.325264587402344,18.21412353515625,1.169817352294922
29570,3.088377685546875,10.19365219116211,-1.0871891784667969
29641,-2.7129583740234375,15.801889801025391,1.8076409912109377
29703,-4.219575347900391,3.137026519775391,-5.347928924560547
29770,-2.448907470703125,10.669063568115234,-1.3823753356933595
29841,1.4635066223144533,6.560706939697266,-2.6911038208007816
29904,-2.7599606323242187,9.646390228271486,-3.229683837890625
29970,-5.24269775390625,16.080759887695315,-1.2020004272460938
30040,-1.3615686035156251,14.497352600097656,3.287014617919922
30104,-1.3482463073730468,9.89666976928711,0.9187893676757813
30170,-1.6709751892089844,8.307424621582031,-3.0970596313476566
30240,0.4632865905761719,8.162525939941407,2.6628126525878906
30303,-4.175117797851563,9.696535949707032,-3.656745758056641
30370,-4.951852569580079,11.657158813476563,2.539768524169922
30441,-4.41881103515625,10.822494506835938,3.6898269653320312
30504,-5.920787658691406,6.90529037475586,1.0289602661132813
30570,-10.252629547119142,3.387605438232422,-3.65240478515625
30638,-9.498797149658204,9.694140930175783,-0.6985972595214844
30704,-4.887037353515625,9.470955047607422,-1.3629158020019532
30770,-0.20312759399414063,10.943143615722656,0.033679962158203125
30838,0.8720864868164063,7.457941131591797,-3.582500152587891
30904,9.284592590332032,9.469757537841797,7.316036224365234
30970,-0.9825567626953126,8.8855224609375,2.205962677001953
31038,-2.079625396728516,9.830657043457032,4.582869873046875
31104,-1.3483959960937502,6.475833435058594,1.916015625
31171,-0.07155120849609375,9.31707504272461,3.272644500732422
31241,-1.6461268615722657,9.41766586303711,4.136947174072266
31304,2.3273602294921876,7.534881134033204,2.221380615234375
31370,0.5297483825683594,10.18886215209961,3.0166767883300785
31440,1.0970686340332032,8.785530395507813,1.159189453125
31504,0.9437873840332032,8.946595458984376,0.08532257080078126
31571,0.006735992431640626,9.489666137695313,0.9108558654785157
31638,-0.7556286621093751,9.55942108154297,-1.7395326232910158
31704,-0.24474105834960938,9.60597427368164,0.8680448913574219
31770,-0.08277786254882813,10.550809478759767,1.7594412231445313
31843,0.6982978820800781,9.28070068359375,1.0529104614257814
31903,1.2549902343750001,9.259444885253906,1.2885205078125002
31971,0.07544311523437501,10.489437103271484,-0.19399658203125
32040,-0.137713623046875,10.404114532470704,0.13247451782226563
32103,0.06721023559570313,9.445058898925781,-1.4910493469238282
32170,0.2329156494140625,9.908794555664063,-0.5231620788574219
32238,-0.14639556884765625,9.84876937866211,-0.9321116638183594
32304,0.8824150085449219,8.754544830322265,-0.8470884704589844
32370,-1.42024658203125,9.886640625,-0.7798782348632813
32439,0.1285826110839844,9.867031402587891,-0.8008346557617188
32504,-0.5816903686523438,10.038724365234376,0.1359173583984375
32570,-2.631078643798828,10.15922378540039,2.255958709716797
32639,0.18052459716796876,9.2495654296875,0.4495152282714844
32704,-0.5403762817382812,9.780062255859375,0.2752775573730469
32770,-0.889749755859375,10.022857360839843,-0.6894662475585938
32840,-2.465522918701172,10.425819396972656,-0.520916748046875
32904,-0.6873706054687501,10.481353912353516,-0.8764274597167969
32970,-1.8935623168945312,9.338031463623047,-1.4513818359375001
33039,-2.2077589416503907,10.091714172363282,-0.9029223632812501
33104,-1.7368382263183595,10.059830474853516,-0.8607101440429688
33170,-1.9044895935058594,10.305918731689454,-1.1606863403320313
33239,-1.9890637207031252,10.992840270996094,-1.3154644775390625
33304,-2.221230926513672,8.725355529785157,-1.9221528625488282
33371,-2.1282742309570315,9.738748168945312,-1.2587324523925782
33439,-2.216590576171875,9.011410675048829,-1.4444961547851562
33503,-2.0710931396484376,9.806557159423829,-1.3813275146484376
33571,-1.8592835998535158,10.057585144042969,-1.45856689453125
33640,-2.1502784729003905,10.271640014648439,-1.9486477661132813
33704,-2.1459375,10.075248413085937,-1.2463082885742187
33771,-1.7414785766601564,10.588680725097657,-1.6736695861816406
33840,-2.032473449707031,9.988578643798828,-1.8027012634277344
33903,-2.512225799560547,9.853709106445313,-2.261796569824219
33971,-2.3174807739257814,10.57206527709961,-1.5500267028808594
34040,-1.6642391967773438,10.045610046386718,-1.49688720703125
34103,-1.5209870910644532,9.981243896484376,-1.1681707763671876
34171,-1.4705419921875,10.038874053955078,-1.200952606201172
34240,-1.184187469482422,9.880054321289062,-0.8898994445800782
34303,-0.909957733154297,9.886041870117188,-1.5376025390625
34371,-0.7020401000976563,9.57618621826172,-0.980760498046875
34440,-0.00029937744140625,9.856852569580079,-0.9318122863769531
34504,0.1526824951171875,9.559870147705078,-0.49756530761718754
34571,0.1381626892089844,9.347611541748048,0.21704864501953125
34640,0.18591339111328126,9.444310455322267,0.6740483093261719
34704,-0.041613464355468754,9.874216461181641,0.7520361328125
34771,-0.00868194580078125,10.263257446289064,0.5081932067871094
34840,-0.5872288513183594,10.26310775756836,0.6108796691894531
34904,-0.7361691284179688,10.333461456298828,0.23920257568359377
34973,-0.44981460571289067,9.77452377319336,0.74964111328125
35039,-0.30671218872070316,10.504705352783203,0.9774673461914063
35104,-0.35685791015625,10.454110565185548,1.0585986328125
35171,-0.0892144775390625,9.999505920410156,0.6568341064453125
35240,-0.355660400390625,9.743238830566407,0.5394781494140626
35303,0.11735595703125,9.776619415283204,0.24384292602539065
35371,-0.16795074462890625,9.39042251586914,0.42586441040039064
35440,-0.7692503356933594,9.251062316894531,1.7977615356445313
35503,-0.6123765563964844,9.97091537475586,0.3369493103027344
35571,-0.076640625,8.698411560058593,-0.4974156188964844
35640,-0.3403921508789063,9.372908935546876,-1.0424322509765624
35704,0.17184265136718752,9.445208587646485,-0.8674461364746094
35771,-0.09430389404296875,10.327623596191406,-0.7414082336425781
35840,-0.22977218627929688,10.243648223876953,-0.8464897155761719
35904,-0.094603271484375,10.189460906982422,-0.3129991149902344
35970,-0.034727783203125,10.009984130859376,-0.5285508728027344
36039,-0.06541397094726563,9.271270294189454,-0.4891827392578125
36104,-0.11511062622070313,8.504265289306641,-0.8544232177734375
36171,0.012274475097656251,9.083111572265626,-0.9066645812988282
36240,-0.15687377929687502,10.191855926513673,-1.0922785949707032
36304,-0.286204833984375,9.877808990478517,-0.9644444274902344
36371,-0.39278320312500004,10.45141616821289,-0.56282958984375
36440,0.018112335205078125,10.109676818847657,-0.7179071044921875
36504,-0.13127700805664064,9.783056030273437,-0.4236190795898438
36571,0.24548950195312502,9.751022644042969,-0.7738906860351563
36640,-0.19564315795898438,9.434131622314453,-0.9395960998535157
36703,0.8161029052734375,9.920470275878907,-1.1298504638671876
36770,0.69216064453125,9.684111785888673,-1.0279124450683594
36840,0.686173095703125,8.750652923583985,-1.345851287841797
36904,0.4182302856445313,9.019793243408204,-0.12364288330078126
36971,0.7506889343261719,9.571396179199219,-1.0843450927734375
37040,0.5679190063476562,9.478888549804688,-1.1106903076171875
37103,-0.23740631103515628,9.612710266113282,-0.9181906127929688
37171,0.5544470214843751,9.53307586669922,-0.7041357421875001
37240,-0.15178436279296875,10.746602325439454,-0.530496826171875
37303,0.10163864135742189,9.722581787109375,-1.075214080810547
37371,-0.15058685302734376,9.649833068847657,0.29847930908203124
37440,-0.056133270263671875,9.467661895751954,-0.4343966674804688
37504,-0.2621049499511719,9.696685638427734,-0.6459068298339844
37571,0.0892144775390625,9.256301422119142,-0.314945068359375
37640,0.09355545043945312,10.314900054931641,-0.24923171997070315
37704,-0.2582130432128906,8.9813232421875,-0.8440946960449219
37770,-0.6108796691894531,9.277407531738282,-0.0796343994140625
37839,-0.7179071044921875,7.332951049804688,-0.8575666809082032
37904,0.047451324462890625,8.465346221923829,-0.08711883544921875
37970,1.2781919860839845,9.357940063476564,0.21585113525390626
38040,-0.4343966674804688,9.856253814697267,-0.9635462951660156
38104,0.29054580688476567,11.489208068847656,0.3124003601074219
38171,0.4628375244140625,8.683592376708985,-0.07858657836914062
38240,0.8113128662109376,9.804311828613281,0.47496231079101564
38304,0.7261399841308595,10.880274353027344,0.7429051208496094
38371,0.49412246704101564,10.156978454589844,0.4794529724121094
38440,0.47750701904296877,9.61600341796875,0.40011795043945314
38504,0.3399430847167969,9.117989044189454,0.5090913391113282
38571,-1.0771600341796876,8.499026184082032,0.9903405761718751
38640,0.6423143005371094,7.6261912536621095,0.7738906860351563
38704,-0.04326004028320313,11.168125762939454,0.05313949584960938
38771,0.1215472412109375,10.699899444580078,0.583187255859375
38839,1.2292437744140625,9.16663787841797,0.9857002258300782
38903,-0.5019062805175781,9.39371566772461,0.8342152404785157
38971,0.5748046875,9.750872955322267,1.6013699340820313
39039,0.3393443298339844,8.287066955566406,0.5240602111816407
39104,-0.07813751220703126,9.684860229492188,0.5852828979492187
39171,-0.05179229736328125,9.85400848388672,0.8038284301757813
39240,0.13322296142578124,8.689729614257812,0.5792953491210938
39304,0.23141876220703125,10.284064178466798,1.3600717163085938
39371,0.229921875,9.395212554931641,0.6056405639648438
39440,0.025896148681640627,8.70110595703125,0.405955810546875
39504,-0.48514114379882817,10.619366912841798,0.1872605895996094
39571,-0.20612136840820314,10.187964019775391,0.7815248107910157
39640,0.22348526000976562,9.639654235839844,1.4245875549316407
39704,0.8961863708496094,9.285939788818359,0.814306640625
39771,0.30371841430664065,7.367828521728516,0.6746470642089845
39840,-0.9677375793457031,7.824079742431641,0.31569351196289064
39904,-0.9607022094726563,9.189540252685548,0.9836045837402344
39970,1.3552816772460938,7.908953247070313,0.30326934814453127
40040,1.1332933044433595,8.43286376953125,1.1268566894531251
40103,0.5161267089843751,13.860127716064454,2.66565673828125
40171,-0.08367599487304687,11.540700988769531,3.1225067138671876
40239,0.013621673583984376,9.620943145751953,2.9689260864257814
40304,0.4800517272949219,11.050769805908203,0.9714797973632813
40371,0.21510269165039064,10.624456329345703,0.310155029296875
40440,-0.6740483093261719,9.259893951416016,0.9731263732910157
40503,0.19444564819335938,9.992320861816406,0.7932005310058594
40571,0.028740234375,9.618697814941406,0.75443115234375
40640,0.7753875732421875,10.032587127685547,1.3635145568847657
40704,0.45580215454101564,9.565558319091798,0.9352551269531251
40771,0.3799099731445313,9.578880615234375,1.3744418334960937
40840,0.21151016235351563,10.70139633178711,1.0663824462890625
40904,0.5361849975585937,9.638456726074219,0.5539979553222657
40971,0.6517446899414063,9.439370727539062,1.0982661437988281
41040,0.26120681762695314,10.114766235351563,0.863404541015625
41103,-0.30805938720703124,10.03363494873047,0.6755451965332031
41171,0.4831951904296875,10.488838348388672,0.4493655395507813
41239,0.4336482238769531,9.814939727783203,0.8319699096679688
41304,-0.03562591552734375,9.702074432373047,0.14325210571289063
41371,0.048648834228515625,9.846673736572265,-0.36134857177734375
41439,-0.2233355712890625,10.207124176025392,1.440604248046875
41504,0.3155438232421875,11.583961029052736,0.8828640747070313
41571,-0.37736526489257816,10.79764617919922,0.5287005615234375
41640,0.38694534301757816,9.524094543457032,-0.48948211669921876
41704,-0.05358856201171875,10.41399398803711,-0.6879693603515625
41771,0.5740562438964844,9.261540527343751,-1.6651373291015625
41840,0.13606704711914064,9.700128479003906,-0.05748046875
41904,0.20746856689453125,10.544971618652344,1.2284953308105468
41971,0.49187713623046875,10.997929687500001,0.17693206787109375
42040,-0.3929328918457031,10.407707061767578,0.6367758178710938
42103,-0.7414082336425781,10.717263336181642,0.828527069091797
42171,1.6205300903320314,9.35823944091797,0.05553451538085938
42240,-0.038470001220703126,9.755962371826172,-0.6408174133300781
42304,-0.3085084533691406,7.802524566650391,-0.06960525512695313
42371,0.40086639404296875,9.580676879882812,-0.5408253479003906
42440,0.9946815490722657,9.649683380126953,0.6066883850097656
42504,-0.16031661987304688,9.844727783203126,1.0092013549804688
42571,0.5935157775878906,9.799372100830078,0.7914042663574219
42640,0.5815406799316406,9.93693603515625,0.5285508728027344
42704,2.2625450134277343,8.235124969482422,0.23366409301757815
42771,0.20986358642578126,8.080047454833984,1.5573614501953126
42840,1.45856689453125,10.991343383789063,0.09580078125000001
42904,-0.33799713134765624,9.347012786865236,1.131646728515625
42970,-0.7575746154785157,8.924142150878907,-0.0473016357421875
43039,2.2339544677734375,9.184151458740235,2.379152526855469
43103,-0.8237370300292969,10.09500732421875,1.542242889404297
43171,1.4735357666015625,10.218799896240235,1.6762142944335938
43240,0.041164398193359375,11.910731506347657,0.31090347290039066
43303,-0.25806335449218754,6.919810180664063,0.48753616333007815
43370,2.5259971618652344,8.578810272216797,-3.0264065551757815
43440,1.327888641357422,8.052804107666017,-0.9740245056152345
43504,0.13651611328125002,9.824669494628907,-0.04206253051757813
43571,-0.7206015014648438,9.119485931396484,0.5707630920410156
43639,-1.0553054809570312,9.07757308959961,-0.7958949279785157
43704,0.23261627197265627,10.128836975097657,1.5744259643554688
43771,0.046253814697265624,10.026599578857422,2.4993525695800782
43839,0.3782633972167969,9.483528900146485,-0.016016693115234376
43904,0.5474116516113281,8.83283203125,0.5261558532714844
43971,0.8033793640136719,10.070308685302734,1.2229568481445312
44040,0.8508306884765625,9.261540527343751,0.8707392883300782
44104,0.06945556640625,9.367071075439453,0.9907896423339845
44171,0.44068359375000005,10.633437652587892,1.7618362426757814
44240,0.22707778930664063,10.811716918945313,2.2570065307617186
44304,1.3955479431152344,9.640851745605469,1.5130535888671877
44371,0.5926176452636719,10.220596160888672,0.3945794677734375
44440,0.37272491455078127,9.728868713378906,0.4543052673339844
44504,0.5037025451660156,8.603059844970703,0.9710307312011719
44571,0.15777191162109375,10.461295623779298,1.3846206665039062
44640,0.2746788024902344,10.032437438964845,1.7800982666015626
44704,0.10807525634765626,10.064171447753907,0.5445675659179687
44771,0.6102809143066407,10.68702621459961,1.4569203186035158
44840,0.44158172607421875,9.636361083984376,2.0517832946777346
44903,0.7593708801269532,10.869945831298828,0.6400689697265626
44970,0.329315185546875,9.438322906494141,0.3263214111328125
45039,0.7511380004882813,10.42986099243164,0.8006849670410157
45104,-0.06900650024414062,10.450218658447266,0.7809260559082032
45171,0.6971003723144532,9.599537658691407,1.3397140502929688
45240,-0.017663269042968752,9.658515014648438,0.4435276794433594
45304,0.48678771972656254,10.497669982910157,0.6939569091796876
45371,0.3165916442871094,8.830736389160156,1.204395446777344
45439,0.3062631225585938,9.270222473144532,0.8695417785644531
45504,0.3950285339355469,10.529254302978517,0.6451583862304687
45571,0.2689906311035156,10.137219543457032,1.307530975341797
45640,0.8342152404785157,8.340655517578126,0.7991880798339844
45704,-0.4201762390136719,10.445727996826172,0.4331991577148438
45771,0.7217990112304687,10.068213043212891,1.7664765930175783
45839,0.6759942626953125,10.284962310791016,1.654808807373047
45904,0.779429168701172,8.731343078613282,0.8616082763671875
45971,0.8963360595703126,9.935588836669922,1.3885125732421875
46040,2.1604573059082033,10.694360961914063,2.164947967529297
46103,0.5834866333007813,9.974208526611328,1.409468994140625
46171,0.4194277954101563,9.804012451171875,2.099084930419922
46239,1.1933184814453126,10.654244384765626,0.21944366455078126
46304,1.4735357666015625,8.772208099365235,0.8165519714355469
46371,0.9372010803222657,9.115594024658204,1.576970672607422
46440,0.8705895996093751,8.904532928466796,1.3260923767089845
46504,0.4550537109375,8.748557281494142,1.8311421203613283
46571,1.2139755249023438,10.708282012939454,1.85135009765625
46640,0.32138168334960937,9.478589172363282,1.7236656188964845
46704,0.9587562561035157,9.114546203613282,1.1407777404785158
46771,-0.2125579833984375,10.73208251953125,0.7212002563476563
46839,1.2711566162109376,9.10721145629883,1.458417205810547
46904,0.2806663513183594,10.508447570800781,2.3602917480468752
46971,1.081351318359375,9.595196685791016,1.687141571044922
47040,0.35775604248046877,9.12307846069336,1.0785072326660157
47104,0.27916946411132815,8.044271850585938,1.384171600341797
47171,0.79754150390625,10.046657867431641,1.5185920715332033
47240,0.7571255493164063,11.044482879638672,1.68848876953125
47304,0.7360194396972657,10.216255187988281,1.3214520263671876
47371,1.0542576599121094,9.552385711669922,1.3091775512695314
47439,0.7461982727050782,9.188941497802736,1.620081024169922
47504,0.8397537231445313,9.915231170654298,1.300345916748047
47571,0.08562194824218751,7.600744171142579,1.5084132385253908
47639,0.47436355590820317,9.795180816650392,1.586700439453125
47704,0.6270460510253907,10.546019439697266,1.6447796630859375
47771,0.6056405639648438,8.298143920898438,0.4727169799804688
47840,0.6351292419433594,7.909252624511719,0.8735833740234376
47903,0.8241860961914063,9.473948822021486,1.5000306701660158
47971,0.6972500610351563,10.131231994628907,1.5209870910644532
48039,0.5607339477539063,10.143506469726564,1.3816268920898438
48103,0.5287005615234375,10.04755599975586,1.3144166564941406
48171,0.4439767456054688,9.935888214111328,1.9782861328125
48240,0.9151968383789063,8.9046826171875,1.2466076660156251
48304,-0.046253814697265624,10.27987289428711,1.8528469848632814
48371,0.9577084350585938,10.19604721069336,2.138602752685547
48440,0.18651214599609375,10.258916473388672,2.129920806884766
48504,0.7207511901855469,10.041418762207032,1.948049011230469
48571,0.35131942749023437,9.809101867675782,2.313289489746094
48640,1.1729608154296876,10.451715545654297,2.1044737243652345
48704,0.29368927001953127,9.354497222900392,1.2515473937988282
48771,1.0467732238769532,9.337283020019532,1.5599061584472658
48840,0.6938072204589845,10.451715545654297,1.7962646484375
48904,0.37437149047851564,9.091643829345703,1.292113037109375
48971,0.6767427062988282,10.05474105834961,1.7612374877929688
49041,0.6746470642089845,10.407557373046876,1.4241384887695314
49104,0.6081852722167969,8.791368255615234,1.4759307861328126
49171,0.31329849243164065,10.347083129882813,1.7359400939941407
49240,0.7270381164550782,9.349707183837891,1.1948153686523437
49304,0.8861572265625001,10.251731414794923,2.0050804138183596
49371,0.6671626281738282,8.757538604736329,1.064586181640625
49440,0.5153782653808594,9.294472045898438,2.1119581604003907
49503,0.8863069152832032,9.230405273437501,1.3078303527832031
49571,0.48379394531250003,9.778715057373047,1.8633251953125
49640,0.8042774963378907,9.461973724365235,1.5196398925781252
49704,0.4068539428710938,9.658215637207032,2.2123992919921878
49771,-0.21121078491210937,9.132508850097656,2.4483087158203127
49840,0.47136978149414066,10.220895538330078,3.0060488891601564
49904,0.6295907592773438,9.668843536376954,2.831511840820313
49973,0.2998265075683594,8.824299774169923,2.6420059204101562
50039,0.8262817382812501,11.019634552001953,2.7774742126464846
50104,0.3715274047851563,10.286010131835939,2.891986083984375
50171,0.5126838684082031,10.219548339843751,2.8400440979003907
50240,0.8402027893066407,9.261390838623047,2.4168740844726564
50304,1.0163864135742189,9.165140991210938,2.040556640625
50371,0.7908055114746094,10.370135192871095,3.0792466735839845
50440,0.24054977416992188,10.060429229736329,2.5020469665527343
50504,0.26315277099609374,10.034682769775392,2.7662475585937503
50571,0.858464813232422,10.022108917236329,2.2435345458984375
50639,0.4245172119140625,10.026300201416015,2.728526000976563
50704,0.47032196044921876,9.696236572265626,2.631827087402344
50771,0.7373666381835938,9.69698501586914,2.574795684814453
50840,0.36539016723632817,9.733209686279297,2.6372158813476565
50904,1.0202783203125,9.917476501464844,3.074606323242188
50971,0.6222560119628907,9.579928436279298,2.745590515136719
51040,0.26120681762695314,8.959618377685548,2.180365905761719
51104,0.162861328125,9.457632751464844,2.740800476074219
51171,0.15328125,9.713001708984375,2.7723847961425783
51240,0.18606307983398437,9.934241638183595,3.906127166748047
51304,0.5522016906738282,9.22411834716797,3.637884979248047
51371,0.6327342224121094,9.52020263671875,4.021537170410157
51439,0.8330177307128906,9.488169250488282,4.007167053222656
51504,0.9500743103027344,9.412127380371095,3.8984930419921877
51571,0.8110134887695313,9.204808502197267,3.8920564270019535
51639,0.5483097839355469,9.54609878540039,4.204756164550782
51704,0.4673281860351563,9.672286376953126,3.643722839355469
51771,0.2912942504882813,9.555678863525392,3.014281768798828
51839,0.39847137451171877,9.565558319091798,2.528092803955078
51904,0.25297393798828127,9.610015869140625,2.3942710876464846
51971,0.40550674438476564,9.642348632812501,2.462080078125
52040,0.23875350952148439,9.772877197265625,2.5530908203125002
52104,0.3263214111328125,9.546697540283203,2.402054901123047
52171,0.22348526000976562,9.752220153808594,2.741698608398438
52240,0.446671142578125,9.583820343017578,1.0511141967773439
52304,0.7203021240234375,9.530082092285157,0.49217651367187504
52371,0.5843847656250001,9.562414855957032,0.35102005004882814
52440,0.7032376098632813,9.57903030395508,0.4616400146484375
52504,0.5417234802246094,9.647138671875,0.8518785095214845
52571,0.8271798706054688,9.877958679199219,1.054706726074219
52640,0.741258544921875,9.906399536132813,0.5433700561523438
52704,0.8026309204101563,9.487869873046876,0.5318440246582031
52771,0.5966592407226563,9.802964630126954,0.6542893981933594
52840,0.5412744140625,9.74817855834961,0.7207511901855469
52904,0.6291416931152344,9.860894165039063,0.7273374938964844
52971,0.8006849670410157,9.56181610107422,0.4620890808105469
53040,0.6218069458007813,9.777816925048828,0.762813720703125
53104,0.4397854614257813,9.62124252319336,0.63947021484375
53171,0.5662724304199219,9.710157623291016,0.7991880798339844
53239,0.4589456176757813,9.560768280029297,0.49636779785156254
53303,0.6117778015136719,9.71419921875,0.7993377685546875
53371,0.5260061645507813,9.574839019775391,0.5755531311035157
53439,0.48948211669921876,9.558672637939454,0.8012837219238281
53504,0.5462141418457032,9.548493804931642,0.4938230895996094
53571,0.4927752685546875,9.587412872314454,0.8485853576660156
53640,0.290994873046875,9.683213653564454,0.6319857788085937
53704,0.5595364379882812,9.66914291381836,0.889749755859375
53771,0.737666015625,9.578581237792969,0.5842350769042969
53839,0.5748046875,9.700427856445312,0.8764274597167969
53903,0.4385879516601563,9.577832794189453,0.5691165161132813
53971,0.5459147644042969,9.747579803466797,0.8454418945312501
54039,0.5044509887695313,9.533225555419923,0.5325924682617188
54104,0.5858816528320313,9.828411712646485,0.7943980407714845
54171,0.6081852722167969,9.561666412353516,0.5566923522949219
54240,0.5212161254882812,9.628726959228516,0.8162525939941406
54304,0.6712042236328125,9.548194427490236,0.5638774108886719
54371,0.528101806640625,9.698631591796875,0.8452922058105469
54441,0.3918850708007813,9.593699798583986,0.5912704467773438
54504,0.5541476440429688,9.740394744873047,0.8396040344238281
54571,0.7729925537109376,9.581275634765625,0.5773493957519532
54640,0.5713618469238282,9.749226379394532,0.8324189758300782
54704,0.4547543334960938,9.586814117431642,0.5679190063476562
54771,0.5786965942382812,9.778116302490234,0.8247848510742188
54840,0.4650828552246094,9.582323455810547,0.5445675659179687
54904,0.5788462829589844,9.736053771972657,0.8403524780273438
54972,0.4812492370605469,9.574240264892579,0.5481600952148438
55040,0.4559518432617188,9.566905517578126,0.7804769897460938
55104,0.4932243347167969,9.581425323486329,0.5409750366210938
55171,0.4878355407714844,9.5848681640625,0.8355624389648438
55241,0.2375559997558594,9.74817855834961,0.6602769470214844
55303,0.4793032836914063,9.616302795410157,0.8291258239746094
55371,0.6029461669921875,9.582323455810547,0.5330415344238282
55440,0.5284011840820313,9.641600189208985,0.8217910766601563
55504,0.32527359008789064,9.659413146972657,0.6447093200683595
55571,0.5572911071777344,9.64758773803711,0.8613088989257813
55640,0.34173934936523437,9.629625091552734,0.6044430541992187
55704,0.5390290832519532,9.667795715332032,0.8616082763671875
55771,0.346080322265625,9.633516998291016,0.5761518859863282
55839,0.4194277954101563,9.5848681640625,0.6635700988769532
55904,0.38395156860351565,9.638157348632813,0.5950126647949219
55971,0.41344024658203127,9.61315933227539,0.7116201782226563
56040,0.3737727355957031,9.603429565429687,0.5581892395019532
56104,0.44562332153320316,9.585915985107423,0.7150630187988282
56171,0.43230102539062504,9.585017852783203,0.5659730529785156
56240,0.4655319213867188,9.574389953613283,0.7447013854980469
56304,0.24219635009765625,9.80565902709961,0.6614744567871094
56371,0.5093907165527344,9.601034545898438,0.7836204528808595
56439,0.27931915283203124,9.765692138671875,0.6372248840332032
56504,0.5312452697753907,9.64279769897461,0.790206756591797
56571,0.30835876464843753,9.651779022216797,0.6268963623046875
56640,0.4508624267578125,9.569599914550782,0.6578819274902344
56704,0.41927810668945314,9.59878921508789,0.5834866333007813
56771,0.49651748657226563,9.591005401611328,0.7253915405273438
56840,0.4858895874023438,9.541608123779298,0.5716612243652344
56904,0.477806396484375,9.567204895019533,0.7572752380371094
56971,0.5152285766601563,9.562265167236328,0.5562432861328125
57039,0.456251220703125,9.582323455810547,0.7758366394042969
57104,0.2501298522949219,9.772727508544923,0.6833290100097656
57171,0.4578977966308594,9.598040771484376,0.8132588195800782
57240,0.24893234252929688,9.779912567138672,0.6795867919921875
57304,0.44682083129882816,9.59295135498047,0.8225395202636719
57371,0.26120681762695314,9.738748168945312,0.6459068298339844
57440,0.3799099731445313,9.677675170898437,0.5641767883300781
57504,0.2782713317871094,9.739197235107422,0.6515950012207031
57571,0.4164340209960938,9.634714508056641,0.6111790466308594
57640,0.3158432006835938,9.672585754394532,0.6141728210449219
57704,0.43888732910156253,9.607171783447265,0.6207591247558594
57771,0.3588038635253906,9.645492095947267,0.6020480346679687
57840,0.4355941772460938,9.596244506835937,0.6674620056152344
57904,0.21824615478515627,9.856852569580079,0.7402107238769532
57971,0.4481680297851563,9.588460693359375,0.7336244201660157
58039,0.24474105834960938,9.829459533691407,0.6941065979003906
58104,0.5068460083007813,9.571695556640625,0.7863148498535156
58171,0.26225463867187504,9.757459259033203,0.6628216552734375
58240,0.40894958496093753,9.642648010253907,0.5490582275390625
58304,0.30072463989257814,9.71749237060547,0.645457763671875
58371,0.4052073669433594,9.66869384765625,0.5429209899902344
58440,0.3058140563964844,9.640552368164062,0.6415658569335938
58504,0.4279600524902344,9.611512756347656,0.6325845336914063
58571,0.36778518676757815,9.63800765991211,0.5740562438964844
58640,0.367635498046875,9.614805908203126,0.6345304870605469
58704,0.33185989379882813,9.90430389404297,0.7631130981445313
58771,0.4331991577148438,9.63082260131836,0.6899153137207031
58840,0.2568658447265625,9.91822494506836,0.7361691284179688
58903,0.4830455017089844,9.581874389648439,0.7417076110839844
58971,0.21450393676757815,9.886341247558594,0.7156617736816406
59040,0.3776646423339844,9.668993225097656,0.5152285766601563
59104,0.2947370910644531,9.809700622558594,0.67779052734375
59171,0.37751495361328125,9.699679412841798,0.5105882263183594
59240,0.24204666137695313,9.802964630126954,0.6628216552734375
59304,0.2942880249023438,9.636660461425782,0.6110293579101563
59371,0.25117767333984375,9.736951904296875,0.6816824340820313
59439,0.3610491943359375,9.724078674316408,0.5201683044433594
59503,0.2613565063476563,9.72662338256836,0.6677613830566407
59571,0.3279679870605469,9.697583770751953,0.5294490051269531
59639,0.29144393920898437,9.962233428955079,0.7924520874023437
59704,0.35625915527343754,9.759255523681642,0.4888833618164063
59771,0.3138972473144531,9.883946228027344,0.7879614257812501
59840,0.2219883728027344,9.943073272705078,0.5590873718261719
59904,0.27737319946289063,9.921218719482422,0.8066725158691407
59971,0.26375152587890627,9.84682342529297,0.47870452880859377
60042,0.4954696655273438,9.863738250732423,0.7637118530273438
60104,0.2881507873535156,9.819580078125,0.4535568237304688
60171,0.20492385864257814,9.884994049072267,0.7661068725585938
60240,0.24533981323242188,9.81523910522461,0.4549040222167969
60303,0.2800675964355469,9.899663543701172,0.7788304138183594
60371,0.36658767700195316,9.66435287475586,0.4328997802734375
60440,0.37018020629882814,9.892029418945313,0.7934999084472657
60504,0.30222152709960937,9.828561401367187,0.4710704040527344
60571,0.30611343383789064,9.974807281494142,0.7194039916992188
60640,0.3415896606445313,9.894873504638673,0.39008880615234376
60704,0.43304946899414065,9.909692687988281,0.9428892517089844
60771,0.19833755493164062,9.888885955810547,0.8455915832519532
60839,0.3948788452148438,9.888287200927735,0.7509883117675782
60904,0.3200344848632813,9.830357666015626,0.7822732543945313
60971,0.4363426208496094,9.906998291015626,0.8592132568359375
61041,0.354462890625,9.880952453613281,0.8140072631835938
61104,0.3501219177246094,9.951605529785157,0.7668553161621094
61171,0.2136058044433594,9.832153930664063,0.6174659729003906
61240,0.41164398193359375,9.755962371826172,0.6650669860839844
61304,0.3180885314941406,9.893526306152344,0.6069877624511719
61371,0.5236111450195313,9.778565368652345,0.6941065979003906
61440,0.33904495239257815,9.853409729003907,0.798739013671875
61504,0.38320312500000003,9.798623657226562,0.6753955078125
61571,0.3435356140136719,9.884395294189453,0.8279283142089844
61640,0.47256729125976565,9.819131011962892,0.6771917724609375
61704,0.3737727355957031,9.85595443725586,0.7740403747558594
61771,0.37511993408203126,9.806706848144533,0.6963519287109375
61840,0.3405418395996094,9.85834945678711,0.7920030212402344
61904,0.4070036315917969,9.715696105957031,0.6863227844238282
61971,0.39712417602539063,9.807006225585939,0.810714111328125
62040,0.6189628601074219,9.708960113525391,0.5393284606933594
62104,0.37856277465820315,9.833052062988282,0.7821235656738281
62171,0.5969586181640625,9.694589996337891,0.5174739074707031
62240,0.6917115783691407,9.843380584716797,0.8722361755371094
62304,0.6001020812988281,9.69548812866211,0.4900808715820313
62371,0.6074368286132813,9.911189575195314,0.8810678100585938
62440,0.5514532470703125,9.705666961669923,0.5298980712890625
62504,0.580642547607422,9.878707122802735,0.8815168762207032
62571,0.6152206420898437,9.724378051757814,0.47915359497070314
62640,0.5942642211914063,9.87661148071289,0.9178912353515626
62703,0.3944297790527344,9.72707244873047,0.5906716918945313
62771,0.46792694091796877,9.873767395019533,0.8689430236816407
62839,0.5408253479003906,9.766440582275392,0.5057981872558595
62904,0.49412246704101564,9.927954711914063,0.7162605285644532
62971,0.6002517700195312,9.752070465087892,0.5563929748535157
63040,0.7264393615722656,9.787247314453126,0.7083270263671876
63103,0.5517526245117188,9.747430114746095,0.6258485412597656
63171,0.3782633972167969,9.809401245117188,0.8089178466796876
63240,0.6101312255859376,9.714348907470704,0.5001100158691406
63303,0.6854246520996095,9.850565643310548,0.7824229431152344
63371,0.5583389282226563,9.681267700195313,0.5216651916503906
63439,0.6183641052246094,9.907597045898438,0.8288264465332031
63504,0.5899232482910156,9.674831085205078,0.4836442565917969
63571,0.6274951171875001,10.03123992919922,0.7430548095703126
63640,0.6201603698730469,9.767787780761719,0.511336669921875
63704,0.5062472534179687,9.886640625,0.6849755859375001
63771,0.6566844177246094,9.760453033447266,0.42526565551757817
63841,0.8132588195800782,9.789941711425781,0.5572911071777344
63904,0.6712042236328125,9.880353698730469,0.45954437255859376
63971,0.6619235229492187,9.759105834960938,0.5098397827148438
64041,0.6914122009277344,9.861043853759766,0.5068460083007813
64104,0.7295828247070313,9.673334197998047,0.3246748352050781
64171,0.7650590515136719,9.920919342041016,0.5132826232910157
64240,0.43125320434570313,9.866582336425783,0.279019775390625
64304,0.24803421020507813,9.704020385742188,0.13651611328125002
64371,0.2465373229980469,9.648485870361329,0.24743545532226563
64440,0.6797364807128906,9.646539916992188,0.10044113159179688
64504,0.40430923461914064,9.62453567504883,0.07140151977539062
64571,0.6572831726074219,9.512119445800781,-0.35057098388671876
64641,0.4248165893554688,10.066416778564454,-0.20911514282226565
64704,0.5246589660644532,10.246791687011719,-0.15178436279296875
64771,0.4751119995117188,9.763446807861328,-0.1622625732421875
64839,0.42227188110351566,9.830806732177734,-0.30147308349609375
64904,0.5554948425292969,9.994416503906251,-0.2603086853027344
64972,0.45684997558593754,9.65147964477539,-0.10807525634765626
65040,0.5695655822753907,9.887239379882812,-0.04655319213867188
65104,0.5215155029296875,9.857151947021485,-0.00987945556640625
65171,0.40850051879882815,9.609566802978517,0.48139892578125004
65240,0.3170407104492188,9.343120880126953,0.9369017028808594
65304,0.4620890808105469,9.132957916259766,0.6652166748046875
65371,0.40356079101562503,9.060957641601563,0.6951544189453125
65440,0.4962181091308594,9.77452377319336,0.5864804077148438
65504,0.41852966308593753,9.76299774169922,0.43499542236328126
65571,0.47481262207031255,9.799521789550782,0.8253836059570313
65639,0.2716850280761719,9.89232879638672,0.5813909912109375
65704,0.6894662475585938,9.501641235351563,0.6815327453613281
65771,0.5486091613769531,9.423354034423829,0.4090992736816406
65840,0.4447251892089844,10.207872619628906,0.8563691711425782
65904,0.7955955505371094,9.713301086425782,0.4626878356933594
65971,0.2436932373046875,10.285111999511718,0.5764512634277345
66040,0.7099736022949219,9.65043182373047,0.465831298828125
66104,0.7457492065429688,9.730066223144531,0.3650907897949219
66171,0.19085311889648438,10.142308959960937,0.5273533630371094
66240,0.3035687255859375,9.84008743286133,0.5545967102050782
66304,0.5572911071777344,9.6519287109375,0.5411247253417969
66371,0.6715036010742188,9.647438049316406,0.5763015747070312
66440,0.40490798950195317,9.612859954833985,0.7099736022949219
66504,0.2854563903808594,9.799072723388672,0.8788224792480469
66571,0.27931915283203124,9.900861053466798,0.9116043090820313
66639,0.528101806640625,9.686506805419922,0.9707313537597657
66704,0.6462062072753907,9.760602722167969,1.0074050903320313
66771,0.7222480773925781,9.537117462158204,0.963995361328125
66840,0.65384033203125,9.586514739990236,0.8458909606933595
66904,0.6159690856933594,9.854307861328126,1.0343490600585938
66971,0.27692413330078125,9.714797973632812,1.004860382080078
67039,0.5310955810546876,9.562714233398438,1.0577005004882813
67104,0.3722758483886719,9.806257781982422,0.6101312255859376
67171,0.3698808288574219,9.445058898925781,0.5972579956054688
67239,0.259859619140625,9.758806457519531,0.552052001953125
67304,0.18995498657226564,9.789792022705079,0.43664199829101563
67371,0.15343093872070312,9.933792572021485,0.6360273742675782
67440,0.1293310546875,9.762698364257814,0.31689102172851563
67504,0.19190093994140625,9.80416213989258,0.4926255798339844
67571,0.29937744140625,9.878557434082031,0.30716125488281254
67640,0.5641767883300781,9.847721557617188,0.5454656982421875
67704,0.44442581176757817,10.037377166748048,0.42227188110351566
67771,0.6997947692871094,9.965825958251953,0.7072792053222656
67840,0.4231700134277344,9.818382568359375,0.3896397399902344
67904,0.47331573486328127,9.642348632812501,0.559237060546875
67971,0.29234207153320313,9.8914306640625,0.4245172119140625
68040,0.6963519287109375,9.804461517333985,0.7104226684570313
68104,0.9954299926757812,10.07779312133789,1.366208953857422
68171,0.8328680419921876,9.737400970458985,1.1681707763671876
68240,0.7481442260742188,9.701924743652345,1.2431648254394532
68304,0.6551875305175782,9.71419921875,0.9752220153808594
68371,0.2231858825683594,9.75251953125,0.9306147766113282
68440,0.0718505859375,9.389225006103516,0.4412823486328125
68504,0.22303619384765627,9.790989532470704,0.8677455139160156
68571,0.7348219299316406,9.844578094482422,0.6001020812988281
68639,0.5179229736328125,9.92780502319336,0.8837622070312501
68704,0.7418572998046875,9.794432373046876,0.7450007629394532
68771,0.4098477172851563,9.763297119140626,1.299298095703125
68840,0.2625540161132813,9.804311828613281,1.640438690185547
68904,0.3255729675292969,9.752369842529298,2.052831115722656
68971,0.41852966308593753,9.374405822753907,1.6384927368164064
69040,0.8399034118652344,9.585915985107423,1.6926800537109377
69104,0.7623646545410157,9.637408905029297,1.533860321044922
69170,0.7116201782226563,9.642049255371095,1.5682887268066408
69240,0.542471923828125,9.65043182373047,1.402283935546875
69304,0.5605842590332032,9.597591705322266,1.9372714233398438
69371,0.5924679565429688,9.538015594482422,0.8864566040039062
69440,0.5763015747070312,9.624236297607423,0.7893086242675782
69504,0.6056405639648438,9.547895050048828,0.1442999267578125
69571,0.51971923828125,9.856253814697267,0.3345542907714844
69640,0.6584806823730469,9.736053771972657,0.4282594299316406
69704,0.3661386108398438,9.965526580810547,0.833466796875
69771,0.5673202514648438,9.657317504882814,0.7741900634765625
69840,0.49756530761718754,9.828112335205079,0.8804690551757813
69904,0.5625302124023438,9.64429458618164,0.5668711853027344
69973,0.5044509887695313,9.959988098144532,0.7051835632324219
70041,0.6200106811523438,9.685309295654298,0.5146298217773437
70104,0.4432283020019531,9.873468017578125,0.8321195983886719
70171,0.5932164001464844,9.712253265380859,0.5867797851562501
70240,0.33260833740234375,9.948013000488281,0.8538244628906251
70304,0.5626799011230469,9.629026336669922,0.5028044128417969
70371,0.29608428955078125,9.876312103271484,0.7644602966308595
70440,0.6004014587402344,9.648036804199219,0.5492079162597656
70504,0.25342300415039065,9.912985839843751,0.8485853576660156
70571,0.5084925842285156,9.664053497314454,0.6090834045410156
70640,0.3824546813964844,9.923314361572267,0.8312214660644531
70704,0.4528083801269531,9.769134979248047,0.6218069458007813
70771,0.3165916442871094,9.919572143554689,0.8063731384277344
70840,0.5828878784179687,9.640103302001954,0.5195695495605469
70904,0.3273692321777344,9.930948486328125,0.7608677673339844
70971,0.599802703857422,9.648785247802735,0.5394781494140626
71040,0.25581802368164064,9.86074447631836,0.7812254333496094
71104,0.5243595886230469,9.625733184814454,0.4427792358398438
71171,0.3209326171875,9.83963836669922,0.7949967956542969
71240,0.5704637145996094,9.704619140625,0.5007087707519532
71304,0.4273612976074219,9.576784973144532,-0.07319778442382813
71371,0.4068539428710938,9.023086395263672,0.2902464294433594
71440,0.7253915405273438,9.104217681884766,-0.19579284667968752
71504,0.5037025451660156,9.638456726074219,-0.07768844604492188
71571,0.23067031860351564,9.583670654296876,-0.0014968872070312501
71640,0.6650669860839844,9.826166381835938,-0.4099974060058594
71704,0.44876678466796877,9.593250732421875,-0.5324427795410156
71771,0.4854405212402344,10.383906555175782,-0.243094482421875
71840,0.33784744262695315,9.272168426513673,-0.7129673767089844
71904,0.31105316162109375,9.241033172607422,-0.6451583862304687
71971,0.434696044921875,9.635762329101563,-0.3629951477050781
72040,0.4602928161621094,9.655221862792969,-0.5995033264160157
72104,0.6233038330078126,10.076445922851564,-0.7662565612792969
72171,0.4836442565917969,9.82721420288086,-1.1249107360839845
72240,0.4167333984375,9.787846069335938,-0.9117539978027345
72304,0.33185989379882813,9.255552978515626,-1.1439212036132813
72371,0.310155029296875,9.976902923583985,-1.1238629150390627
72440,0.6351292419433594,10.157128143310548,-0.8051756286621095
72504,0.8243357849121095,9.109307098388673,-1.6054115295410156
72571,0.016615447998046876,9.955946502685547,-0.8411009216308594
72640,0.14205459594726563,9.870773620605469,-0.8562194824218751
72704,-0.16435821533203127,10.420879669189453,-1.1907737731933594
72771,0.034129028320312504,8.876541137695312,-1.3936019897460938
72840,0.7641609191894532,9.408983917236329,-1.445394287109375
72904,0.3956272888183594,10.080487518310548,-0.8268804931640625
72971,-0.09071136474609376,10.050699462890625,-1.1605366516113282
73040,0.48214736938476566,9.803713073730469,-1.1584410095214845
73104,0.4064048767089844,10.276430053710937,-2.090702362060547
73171,1.1690689086914063,10.154134368896484,-2.322121124267578
73240,0.6655160522460938,10.116412811279297,-0.9042695617675782
73304,0.5432203674316407,10.125394134521486,-1.1970606994628907
73371,-0.5218148803710938,10.198292541503907,-1.7833914184570314
73440,0.031734008789062504,9.33863021850586,-1.0952723693847657
73504,0.6409671020507813,10.37806869506836,-1.2385244750976563
73571,0.5516029357910156,8.62970443725586,-2.4218138122558597
73639,1.0199789428710937,9.418563995361328,-1.8357824707031252
73704,0.3555107116699219,11.112890625,-0.7390132141113281
73771,0.16600479125976564,11.164832611083986,-1.1391311645507813
73840,0.49412246704101564,10.246492309570312,-0.8485853576660156
73904,-0.2118095397949219,8.52103042602539,-0.4399351501464844
73971,-0.031284942626953124,9.374854888916015,-0.9857002258300782
74040,0.5022056579589844,8.414751434326172,-1.3094769287109376
74104,1.3668077087402344,8.803493041992187,-1.224902801513672
74171,-0.10298583984375001,10.340047760009766,0.4249662780761719
74240,0.5545967102050782,10.547067260742189,-1.7057029724121096
74304,1.5024256896972656,9.720935211181642,-1.3018428039550782
74371,-0.9078620910644531,9.39087158203125,-0.6544390869140625
74440,-0.17633331298828125,9.400751037597656,-0.09804611206054688
74504,-0.2893482971191406,10.248587951660157,-1.4159056091308595
74571,-0.5251080322265625,9.167236633300782,-0.2555186462402344
74640,-0.24563919067382814,8.954079895019532,-1.9538868713378907
74704,0.7970924377441406,9.655820617675781,-1.1928694152832031
74771,0.7679031372070313,9.829010467529297,-0.8602610778808594
74840,-1.2457095336914064,9.609417114257813,0.2537223815917969
74904,0.8352630615234375,9.351802825927734,-0.46373565673828127
74970,-0.23785537719726563,9.520502014160156,-0.7206015014648438
75039,0.5430706787109375,9.379195861816406,1.1554472351074219
75104,0.24384292602539065,9.789792022705079,1.44419677734375
75171,0.19609222412109376,9.834998016357423,0.7363188171386719
75239,0.07319778442382813,9.713001708984375,0.8678952026367188
75304,-0.14699432373046875,9.809101867675782,1.274150390625
75371,-0.04834945678710938,9.813293151855468,0.8090675354003907
75440,0.39308258056640627,9.464967498779297,0.5300477600097656
75504,0.34129028320312504,9.207502899169922,0.3534150695800781
75571,-0.45699966430664063,9.138646087646485,-0.300574951171875
75640,0.7137158203125,8.607849884033204,0.5995033264160157
75703,0.20207977294921875,10.389295349121094,0.5188211059570312
75771,0.2028282165527344,10.637329559326172,1.2487033081054688
75840,-0.1381626892089844,9.286239166259767,0.3207829284667969
75904,0.2640509033203125,9.951755218505859,0.4079017639160156
75971,-0.1389111328125,10.076595611572266,0.33635055541992187
76040,0.3514691162109375,10.307415618896485,-0.16974700927734376
76103,0.2613565063476563,7.896529083251954,-0.6060896301269532
76171,-0.13801300048828125,9.584269409179688,-0.4773573303222656
76240,0.1477427673339844,9.292077026367188,-0.5279521179199219
76304,-0.011825408935546875,9.761949920654297,-0.9023236083984375
76371,0.08951385498046875,8.899293823242187,-0.8324189758300782
76440,0.15911911010742188,10.12509475708008,0.20806732177734377
76504,0.4305047607421875,9.30659683227539,-0.7324269104003907
76571,0.10163864135742189,8.630901947021485,-1.387764129638672
76639,0.38814285278320315,9.148525543212891,-0.8863069152832032
76704,-0.17318984985351563,8.65515151977539,-0.9822573852539063
76771,0.5623805236816406,11.506422271728516,-0.2667453002929688
76839,0.3649411010742188,10.471773834228516,-0.5833369445800781
76904,0.24938140869140626,9.244925079345704,-0.3496728515625
76971,-0.19833755493164062,9.128167877197265,-0.6544390869140625
77040,0.4105961608886719,10.381960601806641,-0.27063720703125
77104,0.4363426208496094,9.600286102294922,-0.8379574584960938
77171,0.4141886901855469,8.846603393554688,-1.7812957763671875
77240,-0.27063720703125,9.320517883300782,-0.0940045166015625
77304,0.38559814453125,9.329199829101563,-0.700393524169922
77371,0.73048095703125,8.774603118896485,0.02125579833984375
77440,0.3553610229492188,11.333980865478516,0.03457809448242188
77504,0.3070115661621094,10.610385589599609,0.178428955078125
77571,0.4255650329589844,10.495274963378908,0.1980381774902344
77640,-0.22767654418945313,10.336604919433594,-0.07798782348632813
77704,-0.08412506103515625,10.45426025390625,-1.0445278930664064
77771,0.17797988891601563,9.990524597167969,-0.9449848937988282
77840,0.9433383178710938,8.564589843750001,-0.9743238830566406
77904,0.7171586608886719,9.263187103271484,-1.1311976623535156
77971,0.8821156311035157,9.675429840087892,-0.8048762512207032
78040,0.16435821533203127,10.10069549560547,-1.1597882080078126
78104,0.20522323608398438,9.592502288818359,-0.6340814208984376
78171,1.414259033203125,9.437574462890625,-1.657203826904297
78240,0.7234455871582032,10.46099624633789,-0.6015989685058594
78304,0.3023712158203125,8.43810287475586,-1.2037966918945313
78371,-0.18471588134765626,9.416618041992187,-1.5091616821289062
78440,0.6441105651855469,8.894204406738282,-2.164947967529297
78504,-0.4125421142578125,9.847721557617188,-2.797233123779297
78571,2.4974066162109376,9.876012725830078,0.6716532897949219
78640,0.3320095825195313,12.093501434326173,0.07454498291015625
78704,-1.8244061279296875,9.679920501708985,-1.9071839904785157
78771,-1.36755615234375,13.434862060546875,-2.4028033447265624
78839,1.5129039001464843,8.582103424072265,-0.5933660888671876
78904,0.06855743408203126,9.791438598632814,-2.1248313903808596
78971,-1.1594888305664064,9.960137786865236,0.030087432861328128
79040,-0.8798703002929688,8.601712646484376,-0.8315208435058594
79104,0.0425115966796875,7.823780364990235,-1.505120086669922
79171,0.199984130859375,11.193123779296876,0.8901988220214844
79240,-0.5535488891601563,10.892848205566407,-0.09041198730468751
79304,0.9702822875976563,8.783135375976563,0.4315525817871094
79371,1.0508148193359375,10.262808380126954,0.19579284667968752
79439,0.0496966552734375,8.690777435302735,-0.6957531738281251
79504,0.0712518310546875,10.344837799072266,-0.24938140869140626
79571,-0.06331832885742188,9.821526031494141,0.499361572265625
79640,-0.7464976501464844,9.212442626953125,-0.36209701538085937
79704,-0.0431103515625,9.557026062011719,0.2591111755371094
79771,0.21345611572265627,10.113718414306641,0.62031005859375
79840,0.48978149414062505,8.811875610351564,1.2849279785156251
79904,1.508712615966797,8.87639144897461,0.4697232055664063
79971,-0.7535330200195313,11.169472961425782,0.6771917724609375
80040,-0.7659571838378907,9.096433868408203,1.0241702270507813
80104,-0.3860472106933594,9.450148315429688,1.3483959960937502
80171,-0.374820556640625,10.129884796142578,0.6879693603515625
80240,0.7646099853515625,9.887538757324219,0.6397695922851563
80304,0.22094055175781252,9.938732299804688,0.8613088989257813
80371,0.3686833190917969,11.325298919677735,2.192640380859375
80439,0.4495152282714844,9.859397277832032,0.9047186279296875
80504,-1.1352392578125001,11.137888641357423,1.9034417724609376
80571,1.5898439025878908,11.742481384277344,1.6067587280273439
80640,-0.209564208984375,10.581046600341798,-0.46837600708007815
80704,0.29788055419921877,11.308533782958985,0.6474037170410156
80771,0.9210346984863281,7.470964050292969,1.5703843688964845
80840,-0.22273681640625,9.526938629150392,1.102756805419922
80904,-0.370030517578125,9.736502838134767,1.5395484924316407
80971,-0.36539016723632817,9.843829650878908,1.2507989501953125
81040,1.1970606994628907,10.825637969970703,1.4549743652343752
81104,0.4297563171386719,9.367220764160157,0.5373825073242188
81171,-0.19429595947265627,9.257498931884767,0.8162525939941406
81239,-0.3745211791992188,10.07914031982422,0.8756790161132812
81304,0.2752775573730469,10.74929672241211,2.0043319702148437
81371,0.2999761962890625,11.566746826171876,1.5864010620117188
81440,-0.1375639343261719,11.260184326171876,1.1729608154296876
81504,-0.39772293090820315,8.918154602050782,1.13763427734375
81571,0.9577084350585938,9.580976257324219,0.7020401000976563
81640,0.6864724731445313,9.132808227539064,0.37018020629882814
81704,-0.09011260986328125,10.428663482666016,1.5190411376953126
81771,-0.9657916259765625,9.89711883544922,1.119671630859375
81840,0.5936654663085937,10.114915924072266,1.2940589904785156
81904,-0.18950592041015626,9.710756378173828,0.7083270263671876
81971,0.09669891357421875,10.258018341064453,1.3190570068359375
82039,0.33784744262695315,9.869127044677734,1.5395484924316407
82104,0.8559201049804688,9.693392486572266,1.7357904052734376
82171,0.10582992553710938,10.405910797119141,1.934876403808594
82240,0.08337661743164063,9.924511871337891,1.1344908142089845
82304,0.6756948852539063,8.776848449707032,0.8551716613769532
82371,0.36209701538085937,10.352771301269533,0.9801617431640626
82440,-0.444276123046875,9.348659362792969,0.4782554626464844
82504,0.16136444091796875,9.732161865234376,1.5462844848632813
82571,0.5662724304199219,8.979526977539063,1.5428416442871093
82640,-0.3477268981933594,9.39940383911133,0.5499563598632813
82704,0.06855743408203126,10.612630920410156,0.9307644653320313
82771,-0.01676513671875,9.687255249023439,0.7707472229003907
82840,-0.25387207031250003,9.874216461181641,0.9967771911621094
82904,0.4764591979980469,9.423952789306641,0.8397537231445313
82971,-0.1387614440917969,10.27508285522461,0.6074368286132813
83039,-0.47481262207031255,9.48517547607422,0.700543212890625
83104,0.5559439086914063,8.828341369628907,1.0482701110839845
83171,0.05119354248046875,9.554481353759765,0.25162673950195313
83240,-0.48289581298828127,9.476792907714843,0.37242553710937504
83304,-0.03697311401367188,11.062894592285156,0.9020242309570313
83371,0.39847137451171877,10.272987213134765,1.9091299438476563
83439,-0.8116122436523437,8.438402252197266,1.4180012512207032
83504,0.437091064453125,10.252180480957032,-0.05164260864257813
83571,0.6327342224121094,9.282197570800781,0.7002438354492188
83639,0.33260833740234375,8.53779556274414,-0.46717849731445316
83704,-1.1798464965820312,11.680210876464844,1.4168037414550783
83771,1.9660116577148439,10.20038818359375,0.3059637451171875
83839,0.14474899291992188,8.869655456542969,-0.310155029296875
83904,0.53887939453125,10.337503051757812,0.2842588806152344
83970,-0.36239639282226566,9.160650329589844,2.3375390625000003
84039,0.6890171813964844,10.074200592041016,0.8262817382812501
84104,0.9018745422363281,9.39760757446289,1.3082794189453126
84171,0.9455836486816407,9.664951629638672,1.2199630737304688
84240,-1.1171269226074219,9.65866470336914,1.3425581359863281
84304,0.3752696228027344,8.318651275634766,1.4461427307128907
84370,0.14923965454101562,9.699230346679688,1.312321014404297
84440,-0.09385482788085937,9.65043182373047,1.3421090698242188
84504,-0.8463400268554688,10.063123626708984,0.7732919311523437
84571,0.65384033203125,9.640851745605469,0.4117936706542969
84639,0.4028123474121094,10.005493469238282,-0.22528152465820314
84704,-0.540076904296875,8.193511505126953,-0.3992198181152344
84771,0.1770817565917969,8.989256744384766,-0.6209088134765626
84840,0.20806732177734377,7.734266510009766,-2.2676344299316407
84904,-0.43918670654296876,9.502239990234376,1.0268646240234376
84970,-0.17184265136718752,10.17643798828125,0.49367340087890627
85039,0.5791456604003906,10.811267852783203,1.1070977783203126
85104,-0.5499563598632813,9.164542236328126,-0.7048841857910156
85171,1.354233856201172,9.036708068847657,-0.710123291015625
85240,0.056133270263671875,9.40763671875,0.5706134033203125
85304,-0.13397140502929689,10.793305206298829,0.3040177917480469
85371,-0.04146377563476563,10.275232543945313,-0.6225553894042969
85439,0.9840536499023438,9.009165344238282,-0.0047900390625
85504,-0.8174501037597657,9.670639801025391,0.20432510375976565
85571,0.47376480102539065,10.781779174804688,0.7785310363769532
85640,-0.14325210571289063,10.677296447753907,-0.07050338745117188
85704,0.1381626892089844,9.744586029052735,0.20148101806640625
85771,-0.0868194580078125,9.351503448486328,0.16031661987304688
85841,-0.188009033203125,10.213411102294922,0.41388931274414065
85904,-0.32168106079101566,9.02009262084961,0.980760498046875
85971,0.5830375671386719,10.386900329589844,0.4132905578613281
86041,0.43963577270507814,10.630144500732422,0.7988887023925781
86104,0.2950364685058594,10.017318878173828,0.037571868896484374
86171,0.28216323852539066,8.88791748046875,0.23501129150390626
86239,0.28680358886718754,8.81457000732422,0.7911048889160157
86304,0.46493316650390626,10.776839447021485,1.051263885498047
86371,0.4544549560546875,11.291169891357422,1.2054432678222657
86438,0.7929011535644531,10.672805786132812,1.3572276306152344
86504,-0.05748046875,9.628128204345703,1.1990066528320313
86571,0.16375946044921877,7.7179504394531255,0.37931121826171876
86640,0.17483642578125,9.18774398803711,0.7232958984375001
86704,0.31763946533203125,8.699459381103516,1.3301339721679688
86771,0.3400927734375,11.169323272705078,1.6148419189453125
86839,0.2603086853027344,11.04193817138672,0.9598040771484375
86904,-0.07170089721679689,9.954299926757812,0.7825726318359375
86971,0.4099974060058594,8.793912963867188,0.4297563171386719
87040,1.275347900390625,9.610764312744141,0.5608836364746094
87104,1.0734178161621095,10.64241897583008,0.8904981994628907
87171,1.2180171203613281,10.26460464477539,1.1740086364746094
87239,0.662073211669922,9.291328582763672,0.9077124023437501
87304,0.9538165283203125,9.740394744873047,1.7476158142089844
87371,1.050216064453125,8.434061279296875,0.8881031799316407
87440,1.0000703430175781,9.284293212890626,0.5620811462402344
87504,0.9613009643554687,8.716823272705078,0.9789642333984375
87571,0.4834945678710938,10.555000762939454,1.6745677185058594
87640,0.5923182678222657,8.278534698486329,0.37751495361328125
87704,1.094374237060547,9.181157684326172,1.5681390380859377
87771,2.1549188232421876,9.774673461914062,1.0900332641601562
87840,1.8899697875976564,9.147477722167968,1.7646803283691408
87904,3.217109985351563,9.260642395019532,1.8491047668457032
87971,2.1869522094726563,9.090745697021484,2.5065376281738283
88038,3.6814443969726565,9.216334533691407,1.6305592346191407
88104,2.2335054016113283,9.414522399902344,1.143472137451172
88171,4.165388031005859,9.500294036865235,0.8640032958984375
88240,1.6094531250000002,7.830965423583985,0.8403524780273438
88304,2.2447320556640626,8.171058197021484,1.4676979064941407
88371,3.1593301391601565,9.931846618652344,2.094294891357422
88439,1.6531622314453125,9.270372161865234,0.9122030639648437
88504,1.8525476074218752,8.8855224609375,1.889520721435547
88571,1.235979766845703,10.268197174072267,2.252665557861328
88639,1.793719940185547,10.068811798095703,1.877545623779297
88704,2.327809295654297,10.404862976074218,2.1571641540527344
88771,2.975512390136719,10.63388671875,2.2911355590820315
88840,2.300266571044922,8.753197631835938,1.2828323364257812
88904,-0.5284011840820313,9.28354476928711,2.6063800048828125
88971,1.7060023498535157,8.095914459228515,0.9729766845703125
89040,3.3218920898437503,8.937314758300781,3.636687469482422
89104,0.14639556884765625,6.070177001953125,1.9974462890625
89171,-0.7806266784667969,12.581336975097656,2.49800537109375
89240,1.6998651123046875,10.853330383300781,4.215982818603516
89304,3.0826895141601565,8.795559539794922,3.5712734985351564
89371,1.7995578002929689,10.317594451904297,4.522994384765625
89439,0.34862503051757815,11.631112976074219,4.150269470214844
89504,-0.520916748046875,7.218738555908203,3.9188507080078128
89571,0.21225860595703125,7.134314117431641,3.124153289794922
89640,-0.02065704345703125,10.328521728515625,2.034419403076172
89704,1.0127938842773438,8.441695404052735,2.0802241516113282
89771,2.114652557373047,10.259515228271486,3.1151719665527344
89840,2.8325596618652344,10.558742980957032,4.045786743164062
89904,0.1423539733886719,9.938582611083985,1.5564633178710938
89971,0.7153623962402345,11.131002960205079,1.5281721496582032
90039,0.7030879211425781,8.976084136962891,1.618883514404297
90104,1.7013619995117188,8.456065521240236,0.592767333984375
90171,1.1937675476074219,9.852511596679689,1.5648458862304688
90240,1.3061837768554687,9.800270233154297,1.398541717529297
90304,0.8710386657714844,9.632319488525392,0.4167333984375
90371,0.9840536499023438,9.086404724121094,-0.8644523620605469
90440,0.67779052734375,9.073531494140626,0.4764591979980469
90504,0.41852966308593753,9.311386871337891,0.47870452880859377
90571,0.4305047607421875,10.259066162109375,0.6559359741210938
90640,-0.0508941650390625,10.179132385253906,1.3690530395507814
90704,0.022303619384765626,9.116641845703125,1.3013937377929687
90771,0.018262023925781252,8.69481903076172,-0.3626957702636719
90839,1.209335174560547,9.418863372802734,-0.8110134887695313
90904,0.20612136840820314,8.876241760253906,-0.8295748901367188
90971,0.0664617919921875,9.962383117675781,-0.39712417602539063
91038,-0.5251080322265625,8.8663623046875,-0.6755451965332031
91104,0.5801934814453126,8.2149169921875,-1.226100311279297
91171,-0.629740447998047,9.373208312988282,0.16016693115234376
91239,0.7680528259277344,8.386759643554688,-1.1789483642578125
91304,0.46717849731445316,8.203989715576173,-1.1425740051269533
91371,0.06301895141601563,9.085057525634767,-0.9666897583007813
91440,-0.3426374816894531,12.940440216064454,0.51732421875
91504,-1.488354949951172,13.873150634765626,0.9122030639648437
91571,-2.1011805725097656,10.27178970336914,-0.6474037170410156
91640,-2.2146446228027346,8.979826354980469,-1.3485456848144532
91704,-2.3764581298828125,8.65604965209961,-0.3231779479980469
91771,-0.5147795104980469,9.49909652709961,1.5335609436035158
91840,-1.2599299621582032,8.55066879272461,1.956581268310547
91904,-1.636995849609375,9.692344665527344,0.8711883544921876
91971,-2.6638604736328126,10.565478973388672,0.9119036865234376
92041,-0.36179763793945313,9.465266876220703,1.412911834716797
92104,-1.7263600158691408,11.324849853515625,3.108435974121094
92171,-0.6330335998535157,10.45231430053711,1.9767892456054688
92240,-2.0175045776367186,10.359357604980469,2.548899536132813
92304,-0.5394781494140626,7.2795121765136726,-0.5780978393554688
92371,-0.5330415344238282,8.355025634765626,0.47436355590820317
92440,-2.0422032165527346,11.620784454345703,1.2522958374023438
92504,-1.858235778808594,9.915231170654298,0.42766067504882815
92571,-1.5265255737304688,8.661438446044922,0.8910969543457031
92639,-0.4367916870117188,7.236252136230469,-1.9712507629394531
92704,-1.8083894348144531,13.39863739013672,1.9778370666503908
92771,0.3146456909179688,10.240355072021485,-0.23501129150390626
92839,-1.3467494201660157,10.597362670898438,-1.9294876098632814
92904,-0.7426057434082032,9.93543914794922,2.039059753417969
92971,-2.5629702758789064,11.722423095703126,2.2378463745117188
93039,-1.0241702270507813,10.045011291503906,0.7825726318359375
93104,-0.6382727050781251,9.793534240722657,0.7994874572753906
93171,-0.3040177917480469,7.930059356689454,0.49067962646484375
93240,1.359023895263672,8.123906250000001,-1.755399627685547
93304,-1.216520233154297,10.74211166381836,0.6846762084960938
93371,-1.257235565185547,10.332263946533203,-0.4692741394042969
93440,-0.9602531433105469,8.92623779296875,-0.17738113403320313
93504,-2.678529968261719,10.105784912109376,0.034877471923828125
93571,-1.3097763061523438,9.180858306884765,1.9559825134277344
93639,-0.8559201049804688,10.726993103027345,0.7685018920898438
93704,-0.5002597045898438,9.43248504638672,0.3375480651855469
93771,0.16001724243164064,9.525292053222657,0.5828878784179687
93839,-1.55915771484375,9.671837310791016,0.08771759033203125
93904,-0.6397695922851563,9.234596557617188,-0.6674620056152344
93971,-1.586550750732422,10.86231170654297,-0.5858816528320313
94039,0.3802093505859375,11.574380950927734,1.9001486206054687
94104,1.419049072265625,10.927725677490235,0.959055633544922
94171,0.36359390258789065,9.876012725830078,-1.0840457153320313
94240,0.44577301025390625,10.579100646972657,-0.6740483093261719
94304,0.662222900390625,9.985135803222656,0.5866300964355469
94371,-1.515897674560547,10.179880828857423,1.7724641418457032
94437,-0.7993377685546875,8.285121002197267,1.205742645263672
94504,0.8433462524414063,10.434950408935547,-1.0520123291015626
94571,0.0061372375488281256,8.415799255371095,-0.48948211669921876
94637,-0.20492385864257814,8.92578872680664,1.272803192138672
94704,-0.043559417724609376,9.374106445312501,-0.8114625549316407
94771,0.4201762390136719,8.832532653808594,3.191064147949219
94837,-0.30805938720703124,10.112520904541016,2.2264700317382813
94904,-0.4309538269042969,10.199939117431642,1.230890350341797
94970,-0.0437091064453125,9.776320037841797,1.9737954711914063
95037,-0.3501219177246094,8.944050750732423,2.2005738830566406
95104,-0.35745666503906254,9.889634399414064,1.8862275695800783
95171,-0.03502716064453125,10.209070129394531,2.5674609375
95237,-0.5177732849121094,9.559570770263672,2.0731887817382812
95304,0.6463558959960938,10.38330780029297,2.345472564697266
95371,-0.3058140563964844,8.769813079833984,2.606829071044922
95437,-0.0718505859375,9.462722167968751,3.331172790527344
95504,0.09864486694335937,10.032736816406251,3.849993896484375
95571,0.10747650146484375,9.308542785644532,3.320694580078125
95637,0.1333726501464844,9.383536834716798,3.9405555725097656
95704,0.1490899658203125,9.707612915039062,3.3974848937988282
95771,0.429906005859375,8.966653747558594,2.834206237792969
95837,-0.2375559997558594,9.404493255615234,3.0994546508789065
95904,0.22468276977539064,9.118438110351564,2.651885375976563
95971,-0.014819183349609376,10.476414184570313,2.7771748352050785
96037,0.04146377563476563,10.328970794677735,2.971021728515625
96104,-0.15358062744140627,9.930499420166017,2.9867390441894535
96171,-0.19534378051757814,9.695787506103516,2.5944049072265627
96237,0.045056304931640624,10.142608337402343,3.021167449951172
96304,0.07289840698242188,9.848470001220704,2.6795777893066406
96371,0.018711090087890625,10.437644805908203,2.6966423034667972
96437,-0.23860382080078127,10.116412811279297,0.8530760192871094
96504,-0.12768447875976563,9.634564819335939,0.9877958679199219
96571,-0.2986289978027344,9.497150573730469,0.4878355407714844
96637,-0.12109817504882812,9.740843811035157,0.7767347717285157
96704,-0.279019775390625,10.138417053222657,0.4489164733886719
96771,-0.09520202636718751,9.707313537597656,0.6524931335449219
96837,-0.0484991455078125,9.794282684326172,0.3887416076660156
96904,-0.33724868774414063,10.26310775756836,0.9145980834960938
96971,-0.31284942626953127,9.834099884033204,0.580642547607422
97037,-0.39847137451171877,10.333910522460938,1.4772779846191406
97104,-0.4435276794433594,10.960357818603516,0.00269439697265625
97171,0.11555969238281251,9.029822387695313,-1.1653266906738282
97237,-0.30326934814453127,9.617949371337891,-0.8295748901367188
97304,-0.010328521728515625,11.122021636962891,-0.5478607177734375
97371,0.12079879760742188,10.303673400878907,-0.46298721313476565
97437,0.37197647094726566,9.718091125488282,-1.2368778991699219
97504,-0.10074050903320313,9.189240875244142,-0.7680528259277344
97571,-0.04954696655273438,9.657018127441408,-0.6231541442871094
97637,-0.12109817504882812,10.29469207763672,-0.4174818420410156
97704,-0.06032455444335938,9.462422790527345,-1.212778015136719
97771,0.28216323852539066,10.654394073486328,-0.8870553588867188
97837,0.009131011962890626,9.526938629150392,-0.8864566040039062
97904,0.12079879760742188,10.329569549560548,-0.8978329467773438
97971,-0.2884501647949219,10.172246704101562,-0.40610549926757816
98037,0.38080810546875005,9.882599029541016,-0.5174739074707031
98104,0.13112731933593752,9.789193267822267,-0.9425898742675781
98171,-0.12693603515625002,9.501790924072266,-0.6212081909179688
98237,0.0077838134765625,10.101893005371094,-0.4071533203125
98304,-0.4052073669433594,9.462572479248047,-0.7541317749023438
98371,0.5551954650878906,9.962981872558593,-0.25836273193359377
98437,0.49636779785156254,10.40112075805664,-0.21824615478515627
98504,0.34623001098632816,11.308384094238281,-0.8961863708496094
98571,0.28410919189453127,9.670340423583985,-1.2479548645019531
98637,0.046403503417968756,8.863817596435547,-1.3211526489257812
98704,-0.0016465759277343752,10.137219543457032,-0.21989273071289064
98771,-0.15552658081054688,9.352251892089845,-1.1505075073242188
98837,1.1217672729492187,8.817863159179687,-0.9481283569335938
98904,0.3323089599609375,9.464219055175782,-0.3338058471679688
98971,-0.5228627014160157,10.650502166748048,0.24908203125
99037,-0.37856277465820315,9.461075592041016,-1.0826985168457033
99104,-0.41448806762695317,9.262288970947266,-1.0204280090332032
99171,-0.6858737182617188,9.658065948486328,-1.3816268920898438
99237,0.19040405273437502,10.078990631103515,0.10029144287109376
99304,-0.348475341796875,10.584788818359376,0.08158035278320312
99371,-0.33006362915039067,8.910969543457032,-0.5342390441894531
99437,-0.4441264343261719,9.642498321533203,-1.350791015625
99504,-0.74964111328125,9.755662994384766,-0.27797195434570315
99571,0.14609619140625002,10.237061920166017,-0.5602848815917969
99637,-0.9951306152343751,10.403515777587891,-0.5134323120117188
99704,-0.22079086303710938,10.235265655517578,-0.5536985778808594
99771,1.008153533935547,11.586805114746094,-0.513731689453125
99837,0.4486170959472656,11.319910125732422,-0.09729766845703125
99904,-0.9882449340820313,10.097102966308594,0.0161663818359375
99970,-0.6819818115234375,10.19604721069336,-1.4802717590332033
100037,-1.5479310607910157,8.727600860595704,-1.0665321350097656
100104,-1.0437794494628907,10.707383880615234,-0.0712518310546875
100171,-0.45804748535156253,9.677824859619141,-0.11002120971679688
100237,0.721948699951172,10.462942199707031,-1.4898518371582032
100304,1.4325210571289064,10.545869750976562,-1.5221846008300781
100371,2.752775573730469,10.97592544555664,-0.7339237976074219
100437,-0.233514404296875,9.931547241210938,-0.722098388671875
100504,-0.6590794372558594,8.010442199707033,0.3641926574707031
100570,-1.427281951904297,9.324709167480469,-1.3391152954101564
100637,-0.439486083984375,9.531429290771484,-2.404599609375
100704,-1.976938934326172,9.550739135742187,0.4495152282714844
100771,0.01107696533203125,11.169323272705078,-0.9012757873535157
100837,1.503922576904297,10.769953765869142,-0.7884104919433594
100904,1.4227912902832032,9.332043914794923,-1.469344482421875
100971,-1.3606704711914064,7.849377136230469,-0.5995033264160157
101037,-2.156565399169922,10.022108917236329,-1.730401611328125
101104,1.6807049560546876,11.651021575927736,-0.18486557006835938
101171,-0.20058288574218752,8.746611328125,-2.23934326171875
101237,-1.17595458984375,9.595645751953125,0.3297642517089844
101304,0.7750881958007813,11.726913757324219,-0.5397775268554688
101371,-1.2686119079589844,9.860594787597657,-1.1693682861328125
101437,-0.45235931396484375,9.454788665771485,-1.435814208984375
101504,0.5075944519042969,9.800569610595703,0.5522016906738282
101571,-0.1279838562011719,10.259365539550782,1.8564395141601564
101637,1.0484197998046876,10.447224884033204,-0.03861968994140625
101704,-0.09729766845703125,11.299402770996094,1.7667759704589845
101771,0.4646337890625,9.298064575195314,0.111368408203125
101837,2.271376647949219,10.247390441894531,-0.8669970703125001
101904,-0.5239105224609375,7.967032470703125,0.09774673461914063
101971,-1.3106744384765625,9.637259216308594,0.1874102783203125
102037,0.47556106567382816,11.40553207397461,-0.269439697265625
102104,-1.1252101135253907,12.350966033935547,0.1802252197265625
102171,0.267044677734375,11.601474609375,1.5226336669921876
102237,1.6880397033691408,11.480077056884767,0.9695338439941407
102304,2.151625671386719,7.889942779541016,0.2279759216308594
102371,-0.7903564453125,9.208550720214845,0.1872605895996094
102437,1.9670594787597657,8.581055603027345,-0.3495231628417969
102504,1.1554472351074219,9.695188751220703,1.2124786376953125
102571,3.0897248840332034,9.883197784423828,2.1317170715332034
102637,0.640667724609375,7.756719818115235,3.179238739013672
102704,2.638862457275391,10.46189437866211,2.338886260986328
102771,0.37661682128906254,8.8280419921875,1.2846286010742187
102837,0.8086184692382813,9.45793212890625,1.717079315185547
102904,-0.9816586303710938,8.411158905029298,0.27677444458007816
102971,2.0305274963378905,8.286318511962891,0.6024971008300781
103037,0.7662565612792969,9.813742218017579,0.30072463989257814
103104,3.014132080078125,8.414751434326172,-0.9779164123535157
103171,3.5251693725585938,10.50695068359375,1.2799882507324218
103237,1.3118719482421877,11.300450592041017,1.5161970520019532
103304,2.330054626464844,10.332862701416015,2.4113356018066407
103371,2.698588256835938,9.780810699462892,1.2097842407226562
103437,2.072889404296875,11.444750518798829,1.7898280334472658
103504,3.217259674072266,8.951385498046875,0.4571493530273438
103571,2.954256591796875,10.334808654785157,0.27797195434570315
103637,3.339705047607422,9.255403289794922,-1.2819342041015627
103704,4.652325439453125,7.747738494873047,0.3082090759277344
103771,3.713328094482422,9.590855712890626,0.942440185546875
103837,4.549040222167969,10.246791687011719,2.022294616699219
103904,3.1951057434082033,8.43810287475586,0.5773493957519532
103971,5.182971954345703,9.579629058837892,1.7690213012695313
104037,4.635111236572266,8.187673645019531,0.46538223266601564
104104,4.02602783203125,9.426946563720703,0.7355703735351563
104171,4.049229583740234,9.448202362060547,0.5557942199707031
104237,3.8790335083007816,10.3800146484375,1.084644470214844
104304,4.313579864501953,9.681866455078126,0.1866618347167969
104371,4.240531768798828,8.697812805175781,0.757873992919922
104437,2.165995788574219,9.275311889648439,0.2528242492675781
104504,3.2358210754394534,9.566306762695312,1.3421090698242188
104571,2.6664051818847656,10.142758026123047,0.32811767578125
104637,2.5569827270507814,11.110645294189453,0.9452842712402344
104704,2.612666931152344,9.632020111083985,0.8301736450195313
104771,2.9166847229003907,9.524094543457032,-0.041164398193359375
104837,3.4278717041015625,9.355095977783204,0.27153533935546875
104904,2.8398944091796876,9.431736602783204,0.2938389587402344
104970,1.5618521118164064,9.342073059082031,-0.9132508850097657
105037,2.689457244873047,10.165211334228516,-1.6238232421875
105104,2.102527770996094,9.455088043212891,1.0074050903320313
105171,2.126328277587891,9.829758911132814,-0.10253677368164063
105237,2.0411553955078126,10.087373199462892,-1.1005114746093752
105305,1.964814147949219,8.795260162353516,-1.0460247802734375
105371,2.0910017395019533,9.422306213378906,-0.012124786376953125
105437,1.8607804870605469,10.977871398925782,0.12409194946289064
105504,1.690734100341797,9.913135528564453,-1.034498748779297
105571,0.9840536499023438,9.962832183837891,-0.746048583984375
105637,0.6497987365722656,9.536818084716797,-1.0541079711914063
105704,0.8547225952148438,10.451116790771485,-1.7652790832519532
105771,-0.2950364685058594,10.21760238647461,-2.132315826416016
105837,-0.18576370239257814,11.273207244873047,-0.9053173828125001
105904,0.22887405395507815,10.855426025390626,-0.5399272155761718
105971,1.4424005126953126,11.058403930664063,-1.3172607421875
106038,0.3165916442871094,8.291407928466798,-1.4828164672851563
106104,1.4932946777343752,11.981384582519532,-0.6343807983398437
106171,-1.569785614013672,10.711724853515626,-0.7375163269042969
106237,4.799170074462891,8.024512939453125,-1.9574794006347658
106304,3.1823822021484376,10.236463165283203,-1.530267791748047
106371,1.5311659240722657,10.855725402832032,0.5866300964355469
106437,1.3024415588378906,8.766968994140626,-1.5450869750976564
106504,0.6725514221191407,11.140882415771484,3.4781671142578126
106571,2.0604652404785155,13.016033020019531,-0.05882766723632813
106637,1.927841033935547,9.471404113769532,-0.468226318359375
106704,1.2220587158203127,10.115963745117188,-2.245181121826172
106771,1.2407698059082033,9.426497497558595,-0.41628433227539063
106837,1.9636166381835938,11.167826385498048,-0.4932243347167969
106905,0.9524693298339845,11.062744903564454,-0.33185989379882813
106971,1.9293379211425783,10.016271057128908,-0.3183879089355469
107037,0.9547146606445313,10.997630310058595,-0.4218228149414063
107104,0.5572911071777344,9.634714508056641,-0.3948788452148438
107171,1.586550750732422,10.660082244873047,-1.1163784790039064
107237,1.2320878601074219,9.459578704833985,-1.753154296875
107305,0.35206787109375004,9.671238555908204,-1.4205459594726564
107371,1.1466156005859376,11.103609924316407,-0.7188052368164063
107437,0.8445437622070313,9.535919952392579,-1.1388317871093752
107505,0.7044351196289063,9.249266052246094,-0.967438201904297
107571,1.1960128784179689,10.989547119140626,-1.1222163391113282
107637,1.2801379394531252,10.075098724365235,-0.7286846923828125
107705,1.192570037841797,9.29357391357422,-0.7402107238769532
107771,0.9511221313476563,10.063123626708984,-1.233285369873047
107837,1.4268328857421875,9.707313537597656,-0.7176077270507812
107904,1.148411865234375,9.510921936035157,-0.9259744262695313
107971,1.4299763488769532,10.220895538330078,-0.7912545776367188
108037,0.5984555053710938,10.163115692138673,-1.7576449584960938
108104,0.7030879211425781,9.1729248046875,-0.6325845336914063
108171,1.0707234191894532,10.350975036621094,-0.2525248718261719
108237,0.4721182250976563,9.773925018310548,-1.0270143127441407
108305,0.35940261840820314,9.616302795410157,-0.7897576904296876
108371,0.6156697082519531,9.820777587890625,-0.8931925964355469
108437,0.214354248046875,8.922944641113281,-1.3058843994140625
108504,0.40191421508789066,10.029293975830079,-0.08232879638671875
108570,0.8590635681152344,10.146500244140626,0.5487588500976562
108637,0.999770965576172,10.656489715576173,0.3983216857910156
108704,0.9181906127929688,9.976603546142579,0.8839118957519532
108771,1.2398716735839845,10.423574066162109,0.49067962646484375
108837,1.3910572814941407,9.651030578613282,0.20058288574218752
108904,1.3509407043457031,9.604776763916016,0.7643106079101563
108971,0.9581575012207032,10.105485534667968,0.5387297058105469
109037,0.8966354370117188,9.868977355957032,0.7659571838378907
109105,0.9906399536132813,9.446256408691406,0.5300477600097656
109171,0.41089553833007814,9.940977630615235,0.46538223266601564
109237,0.4279600524902344,9.513616333007812,0.5297483825683594
109305,1.0594967651367189,10.034832458496094,0.7414082336425781
109372,0.6002517700195312,8.933572540283203,0.7553292846679688
109437,0.7658074951171875,9.853110351562501,0.5869294738769532
109505,1.1557466125488283,8.747210083007813,0.22647903442382813
109571,1.3332774353027343,9.537716217041016,0.48109954833984375
109637,1.379231872558594,10.923983459472657,1.6717236328125
109705,1.3058843994140625,10.050699462890625,-0.5206173706054688
109771,1.1343411254882814,10.32971923828125,0.22153930664062502
109837,1.7326469421386719,9.96088623046875,0.9246272277832032
109904,0.4037104797363281,8.014783172607423,0.13397140502929689
109970,1.3091775512695314,9.003477172851563,1.3801300048828127
110037,1.246457977294922,10.414143676757813,0.2411485290527344
110105,0.9005273437500001,9.647288360595704,-0.47077102661132814
110171,0.7149133300781251,10.067314910888673,0.5269042968750001
110237,0.40505767822265626,9.20450912475586,0.24608825683593752
110304,0.9876461791992188,8.714128875732422,-0.7756869506835938
110371,1.0204280090332032,9.28833480834961,0.619112548828125
110437,0.5809419250488281,10.458451538085939,0.6265969848632813
110505,0.7258406066894532,9.47364944458008,-0.11091934204101563
110571,0.9238787841796875,9.481433258056642,0.75922119140625
110638,1.1066487121582032,10.452164611816407,0.33440460205078126
110704,0.9051676940917969,11.161090393066408,0.6017486572265626
110771,0.9753717041015626,11.139535217285157,0.4147874450683594
110837,0.19160156250000002,9.96328125,-0.2751278686523438
110905,0.8686436462402344,9.539213104248047,-0.3658392333984375
110971,0.9228309631347656,9.593550109863282,-0.12229568481445313
111037,0.5891748046875,9.282496948242189,-0.0652642822265625
111104,0.4076023864746094,8.958121490478517,-0.6267466735839844
111171,0.7467970275878907,10.544672241210938,0.6939569091796876
111237,0.20073257446289064,10.381212158203125,-0.049097900390625004
111304,-0.13397140502929689,8.45396987915039,0.46493316650390626
111371,0.2700384521484375,11.390712890625,0.2233355712890625
111437,-0.07993377685546875,9.885892181396486,0.03787124633789063
111505,0.12903167724609377,10.675949249267578,0.4912783813476563
111571,0.39398071289062503,9.498497772216798,-1.1535012817382813
111637,-0.2571652221679688,10.22763153076172,-0.08008346557617188
111705,0.17498611450195314,6.445596313476563,-3.464246063232422
111771,0.15971786499023438,8.189170532226562,0.10582992553710938
111837,-0.16181350708007813,12.267888793945312,1.954186248779297
111904,0.2537223815917969,11.339818725585937,0.6926097106933594
111971,0.8732839965820313,5.942791900634766,2.715503082275391
112037,1.6045133972167969,8.616980895996095,-1.4647041320800782
112105,1.1258088684082033,11.026969299316407,0.5056484985351563
112171,0.7267387390136719,10.613828430175781,0.3311114501953125
112237,0.5129832458496094,9.089248809814453,0.27722351074218754
112305,0.4980143737792969,8.875044250488282,-0.5248086547851563
112371,0.39667510986328125,8.918753356933594,-0.27078689575195314
112437,0.4087998962402344,10.361453247070314,0.08637039184570312
112504,-0.2022294616699219,9.483379211425781,0.5246589660644532
112571,1.4624588012695314,9.67827392578125,0.3941304016113281
112637,0.9557624816894532,10.063123626708984,1.009650421142578
112704,0.6270460510253907,9.826465759277344,0.45116180419921875
112771,-0.4794529724121094,10.043215026855469,0.23620880126953125
112837,0.8071215820312501,9.710157623291016,1.149609375
112905,1.1020083618164063,10.15338592529297,2.1239332580566406
112971,0.45295806884765627,11.031759338378906,1.5251783752441408
113037,0.08831634521484376,10.096354522705079,0.602197723388672
113104,0.4149371337890625,8.898096313476563,0.2606080627441406
113171,1.363963623046875,9.159452819824219,-0.4614903259277344
113237,0.9830058288574219,8.762478332519532,-0.9785151672363281
113305,1.0038125610351563,9.179511108398438,0.8449928283691407
113371,1.7242643737792969,8.954678649902345,-0.015717315673828124
113437,1.4566209411621094,9.67827392578125,1.902843017578125
113505,0.8952882385253906,6.920408935546876,-0.22288650512695313
113571,0.8879534912109376,11.165880432128906,1.302740936279297
113637,-0.17064514160156252,9.797426147460937,0.8930429077148438
113705,1.5868501281738283,10.285860443115235,1.5646961975097657
113771,2.496658172607422,7.785759429931641,0.32482452392578126
113837,-0.7060816955566407,9.197623443603517,0.374820556640625
113904,0.0005987548828125,7.933801574707032,0.43185195922851566
113971,-0.6626719665527344,6.972051544189453,-0.9792636108398438
114037,3.0364356994628907,10.900332641601564,-1.1740086364746094
114104,0.3124003601074219,11.297007751464845,1.2638218688964844
114171,1.0996133422851564,11.58470947265625,0.9951306152343751
114237,-0.28635452270507816,10.140063629150392,0.25117767333984375
114304,0.2561174011230469,9.526938629150392,-1.6172369384765626
114371,0.456251220703125,9.920769653320313,-1.4879058837890626
114437,-0.2429447937011719,9.485474853515626,-0.11106903076171876
114505,-0.3059637451171875,10.912756805419923,0.0058378601074218755
114571,-0.6539900207519531,10.809770965576172,1.1490106201171875
114637,0.6267466735839844,9.097032623291016,0.6146218872070313
114704,-0.8517288208007813,10.21805145263672,0.48753616333007815
114771,-0.408350830078125,9.56286392211914,0.030237121582031252
114837,-0.15612533569335937,10.275980987548829,-0.7646099853515625
114904,0.9321116638183594,9.747130737304689,0.15328125
114971,0.05703140258789063,9.42634780883789,-0.5186714172363281
115038,-0.06586303710937501,9.279353485107423,-0.8846603393554688
115104,-0.9274713134765625,8.471333770751954,-0.6179150390625
115171,-0.14699432373046875,10.258467407226563,-0.5194198608398438
115237,-0.03188369750976563,9.130413208007813,-0.798739013671875
115305,0.08053253173828126,9.058712310791016,-0.5536985778808594
115371,0.2633024597167969,9.730515289306641,-0.3074606323242188
115437,1.1784992980957032,9.2351953125,-0.8396040344238281
115504,0.8003855895996094,9.36258041381836,-0.23905288696289065
115570,0.45161087036132813,9.663155364990235,-1.3858181762695314
115637,-0.1537303161621094,9.609866180419923,0.6638694763183595
115705,-1.2355307006835938,8.103698272705078,-0.36254608154296875
115771,-0.20552261352539064,9.552086334228516,-0.2871029663085938
115837,0.40550674438476564,10.071655883789063,-0.346080322265625
115905,1.7824932861328127,8.949289855957032,-1.823507995605469
115971,0.24863296508789065,10.558293914794923,-0.15238311767578125
116037,0.6800358581542969,9.564061431884767,0.17378860473632812
116104,-0.2613565063476563,8.6460205078125,1.0759625244140625
116171,0.5426216125488281,9.541458435058594,-0.08158035278320312
116237,2.105072479248047,11.296708374023439,0.045056304931640624
116305,-0.34982254028320314,11.85145477294922,1.727856903076172
116371,-1.0394384765625,10.14814682006836,0.7086264038085938
116437,0.2746788024902344,6.756499786376954,-1.3371693420410158
116505,0.9761201477050782,5.07310043334961,1.5229330444335938
116571,0.49067962646484375,10.541828155517578,3.526516571044922
116637,1.6432827758789064,9.145980834960938,0.28216323852539066
116704,0.6595285034179688,8.200546875,-0.15133529663085937
116771,1.3977932739257812,7.13042221069336,-2.4206163024902345
116837,2.3834934997558594,9.058712310791016,-0.5581892395019532
116905,-0.5108876037597656,12.010124816894532,1.7989590454101563
116971,-1.9691551208496094,10.265802154541015,0.6123765563964844
117037,3.366050262451172,10.77324691772461,1.0008187866210938
117105,-1.4473402404785156,8.802744598388673,0.6147715759277345
117171,3.881877593994141,10.546318817138673,-0.04879852294921875
117237,-1.7289047241210938,11.093281402587891,0.5236111450195313
117305,-0.22528152465820314,9.526938629150392,2.0169058227539063
117371,0.9093589782714844,7.8270735168457035,0.6973997497558594
117437,1.2701087951660157,9.923763427734375,1.7437239074707032
117505,-0.9517208862304688,11.564950561523439,3.110830993652344
117571,-0.28111541748046875,10.102042694091798,1.924398193359375
117637,-0.5450166320800781,8.872499542236328,2.339335327148438
117705,0.991388397216797,10.585088195800783,1.30049560546875
117771,0.38769378662109377,11.48456771850586,2.265838165283203
117837,-1.524280242919922,9.665101318359376,1.9770886230468752
117905,0.16076568603515626,9.274264068603516,2.345771942138672
117971,1.009500732421875,10.025252380371095,2.7991790771484375
118037,-0.4159849548339844,7.760611724853516,2.249073028564453
118105,0.06032455444335938,9.841883697509767,1.3766871643066407
118171,-0.5396278381347657,9.290131072998047,0.2601589965820313
118237,0.8903485107421876,8.827293548583985,2.581531677246094
118305,0.9611512756347657,9.2351953125,1.6756155395507812
118371,1.0397378540039064,8.877588958740235,-0.130528564453125
118437,-0.2525248718261719,10.338700561523439,4.996908874511719
118505,0.9586065673828126,10.28855484008789,2.193688201904297
118571,0.40430923461914064,11.03475311279297,1.140029296875
118637,0.7601193237304688,6.8847830200195315,1.2334350585937501
118705,2.7925927734375002,8.589138793945313,0.858464813232422
118771,0.7656578063964844,10.693462829589844,3.266507263183594
118837,0.868194580078125,10.915151824951172,1.8926641845703125
118905,0.8286767578125,10.518327026367189,2.365680541992188
118971,3.8308337402343753,7.584727478027344,-1.4563215637207032
119037,0.36209701538085937,5.2138078308105476,1.4974859619140626
119105,0.8306227111816407,6.142925720214844,0.16555572509765626
119171,-0.24144790649414063,8.766819305419922,0.30446685791015626
119237,1.4160552978515626,6.797813873291016,-1.0928773498535156
119305,0.43379791259765627,8.765921173095704,-0.9352551269531251
119371,0.8325686645507813,8.83088607788086,0.13501922607421876
119437,0.00239501953125,11.288325805664064,-0.5117857360839844
119505,0.2616558837890625,9.585167541503907,-1.3572276306152344
119571,-0.8660989379882813,8.789422302246095,-0.22692810058593751
119637,-0.5598358154296875,9.378746795654298,-0.0059875488281250005
119705,-1.6401393127441406,12.02344711303711,0.43484573364257817
119771,0.6806346130371094,8.73508529663086,0.279019775390625
119837,-1.764979705810547,8.89465347290039,0.37197647094726566
119904,-1.5057188415527345,8.755892028808594,-0.5405259704589844
119970,-1.406924285888672,8.0520556640625,-0.7958949279785157
120037,-1.162632293701172,8.513396301269532,0.9392967224121094
120105,-0.7912545776367188,8.311765594482422,0.7253915405273438
120171,-1.6377442932128907,8.295748901367189,0.011526031494140625
120237,-0.5484594726562501,7.755372619628907,-0.21600082397460937
120305,-1.182989959716797,8.326584777832032,0.023950195312500002
120371,-0.3646417236328125,8.977581024169922,0.06376739501953126
120437,-1.5166461181640625,12.949720916748047,1.8085391235351564
120505,-1.0141410827636719,14.465768280029298,2.6472450256347657
120571,0.8583151245117188,12.709620208740235,3.0566436767578127
120637,0.5378315734863282,11.791429595947266,2.5020469665527343
120704,-0.48094985961914066,7.381001129150391,-0.2942880249023438
120771,-1.2078382873535156,6.644382934570313,-1.7347425842285158
120837,0.6700067138671876,8.113428039550781,-1.7664765930175783
120905,1.7806970214843751,8.13154037475586,1.0788066101074218
120971,-0.22034179687500002,9.630672912597657,1.6485218811035156
121037,1.3308824157714845,10.585088195800783,1.8622773742675782
121105,2.7162515258789064,9.006920013427735,1.159039764404297
121171,1.205892333984375,8.775351562500001,1.1936178588867188
121237,1.563648376464844,9.505533142089844,0.8361611938476563
121305,3.2768357849121097,9.829309844970703,2.159259796142578
121371,0.9250762939453125,10.545420684814454,1.9737954711914063
121437,0.9604028320312501,9.106313323974609,1.2519964599609377
121504,1.5852035522460939,8.010891265869141,1.8083894348144531
121571,2.026336212158203,9.046288146972657,2.7858567810058594
121637,0.9014254760742187,10.137518920898438,2.694696350097656
121705,1.0324031066894532,11.333082733154297,2.228565673828125
121771,1.8013540649414064,9.872420196533204,1.1897259521484376
121837,-0.2185455322265625,7.496560821533204,0.5408253479003906
121905,0.18127304077148437,7.6175093078613285,1.0433303833007812
121971,0.47062133789062505,10.069410552978516,1.558858337402344
122037,-0.23875350952148439,10.161469116210938,2.651885375976563
122105,-0.19175125122070313,10.385403442382813,2.42615478515625
122171,-1.5564633178710938,8.558901672363282,1.654808807373047
122237,-0.7351213073730469,9.40045166015625,2.1041743469238283
122305,-3.240611114501953,10.547666015625001,2.1239332580566406
122371,-2.5773403930664065,10.367440795898437,2.0776794433593753
122437,-5.510191497802735,10.826685791015626,2.478545837402344
122505,-4.752317504882813,10.163265380859375,1.4421011352539064
122571,-4.166286163330079,9.788145446777344,1.4331198120117188
122637,-4.211342468261719,9.137897644042969,1.8854791259765626
122705,-4.147575073242188,9.827812957763673,1.5766712951660158
122771,-4.447850646972657,10.344987487792968,1.7236656188964845
122837,-3.892655181884766,10.235415344238282,1.08494384765625
122905,-4.145928497314453,9.611063690185548,0.8617579650878907
122971,-4.253105621337891,8.434660034179688,1.1985575866699218
123037,-3.6934194946289063,9.734856262207032,1.475481719970703
123105,-4.093238067626953,9.843380584716797,1.4922468566894531
123171,-3.6479141235351564,9.163644104003907,1.2196636962890626
123237,-3.4440380859375,9.014105072021485,0.8726852416992188
123305,-3.3570689392089847,9.766141204833986,1.2916639709472657
123371,-2.6201513671875003,10.015821990966797,1.1523037719726563
123437,-3.2759376525878907,10.547516326904297,0.31524444580078126
123505,-3.6109410095214844,10.030042419433594,0.9177415466308594
123571,-3.2253428649902345,9.49954559326172,0.544866943359375
123637,-3.0717622375488283,9.637857971191407,0.20028350830078126
123705,-2.463127899169922,9.605225830078126,0.869242401123047
123771,-2.0806732177734375,9.736652526855469,-0.16061599731445314
123837,-4.253704376220703,11.468101959228516,0.016316070556640624
123905,-3.2910562133789063,9.804311828613281,-0.00239501953125
123971,-4.121678924560547,9.153016204833985,-0.011825408935546875
124037,-4.133654022216797,11.582613830566407,1.0473719787597657
124105,-1.7823435974121096,11.01514389038086,2.436632995605469
124171,-1.8866766357421876,11.425290985107422,-1.059796142578125
124237,-1.59747802734375,9.000333709716797,-1.981728973388672
124305,-2.078727264404297,8.823251953125,1.1879296875
124371,-0.43828857421875,10.267149353027344,2.125729522705078
124437,-7.282206573486328,12.098441162109376,0.8641529846191407
124505,-2.5300387573242187,8.329129486083986,1.8815872192382814
124571,0.030686187744140628,9.956245880126954,-1.550475769042969
124637,-0.34503250122070317,9.476343841552735,-0.7162605285644532
124705,0.8575666809082032,7.845335540771485,1.7069004821777345
124771,-2.0941452026367187,10.947783966064454,-0.2118095397949219
124837,-8.958570556640625,10.886411590576172,-0.29488677978515626
124905,-1.152902526855469,10.486593017578125,-3.9833665466308594
124971,-1.4548246765136719,10.643317108154298,-1.9248472595214845
125038,-0.9985734558105469,11.996952209472656,1.32205078125
125105,0.022004241943359377,9.042845306396485,2.2338047790527344
125171,-1.282532958984375,7.9097016906738284,0.3345542907714844
125237,-0.18815872192382813,8.872649230957032,0.647852783203125
125305,-0.8918453979492188,11.623778228759766,-0.765208740234375
125371,1.264270935058594,8.95542709350586,-1.6798068237304689
125437,0.005239105224609375,10.048753509521484,-0.8020321655273438
125505,-0.62989013671875,9.696535949707032,-0.31374755859375003
125571,-0.1293310546875,10.843301239013673,-0.5414241027832032
125637,-0.4712200927734375,9.757459259033203,-0.052690429687500005
125705,0.10298583984375001,10.755433959960937,-0.6991960144042969
125771,0.09145980834960937,9.753717041015625,-1.178199920654297
125837,0.20657043457031252,9.760453033447266,-0.45640090942382816
125905,0.5493576049804688,10.59122543334961,-0.6697073364257813
125971,0.7294331359863282,9.343120880126953,-0.4427792358398438
126037,0.5704637145996094,9.427395629882813,-0.34143997192382813
126105,0.027991790771484375,8.99284927368164,-0.7756869506835938
126171,0.09969268798828125,9.104067993164064,-0.6182144165039063
126237,0.5044509887695313,8.65320556640625,-0.060474243164062504
126305,0.781973876953125,8.74466537475586,-0.14340179443359377
126371,-0.5486091613769531,10.557545471191407,-0.3710783386230469
126437,-0.08652008056640625,8.844208374023438,-0.07873626708984376
126505,-0.018860778808593753,9.826016693115236,-0.8855584716796876
126571,0.12229568481445313,10.288255462646484,-0.29189300537109375
126637,0.7625143432617187,9.810149688720704,-1.3763877868652346
126705,0.47181884765625004,10.16775604248047,-0.8699908447265625
126771,-0.07604187011718751,9.245374145507814,0.12603790283203126
126837,0.3483256530761719,9.575587463378907,-0.41119491577148437
126905,0.12364288330078126,9.606573028564453,0.27063720703125
126971,0.0987945556640625,9.213191070556642,-0.43424697875976564
127037,1.0823991394042969,9.41377395629883,0.7656578063964844
127105,0.3838018798828125,8.61293930053711,0.6337820434570313
127171,1.1882290649414062,9.556427307128907,-0.257464599609375
127237,0.8773255920410157,9.375753021240234,-1.0612930297851564
127305,0.09654922485351564,9.65043182373047,-1.7079483032226563
127371,-0.034129028320312504,9.58441909790039,-0.9569599914550782
127437,0.09580078125000001,10.611433410644532,-1.4750326538085938
127505,0.9151968383789063,9.231602783203126,-1.313668212890625
127571,-0.09729766845703125,9.73380844116211,-0.32063323974609376
