relative_time,AccX,AccY,AccZ
0,0.33605117797851564,9.990225219726563,0.8247848510742188
24,0.015717315673828124,9.567803649902345,0.7996371459960938
91,0.20567230224609376,9.807155914306641,0.8523275756835937
158,0.22228775024414063,9.635762329101563,0.8508306884765625
224,-0.002544708251953125,9.866732025146485,0.8725355529785157
291,0.10852432250976562,9.84682342529297,0.8319699096679688
358,-0.006735992431640626,9.748328247070313,0.8003855895996094
424,0.0592767333984375,9.96133529663086,0.8830137634277344
491,0.012723541259765625,9.841883697509767,0.8529263305664063
558,-0.0053887939453125,9.977351989746094,0.8602610778808594
626,-0.018411712646484377,9.838440856933595,0.8762777709960938
691,-0.051043853759765626,9.863738250732423,0.7801776123046875
758,-0.09744735717773438,9.83918930053711,0.8446934509277344
824,0.173638916015625,10.047256622314453,0.865799560546875
891,-0.048648834228515625,9.547895050048828,0.8211923217773438
958,-0.04340972900390625,9.938133544921875,0.8228388977050781
1024,-0.13906082153320312,9.640252990722656,0.8065228271484376
1091,-0.09086105346679688,9.878707122802735,0.8479866027832031
1158,-0.009729766845703125,9.681716766357422,0.8235873413085938
1224,-0.08352630615234376,9.9249609375,0.8123606872558594
1291,-0.0688568115234375,9.675429840087892,0.8132588195800782
1358,-0.142503662109375,9.82676513671875,0.8096662902832031
1424,-0.02424957275390625,9.637259216308594,0.8957373046875
1491,-0.1573228454589844,9.909393310546875,0.95561279296875
1558,-0.09415420532226564,9.809251556396484,0.7924520874023437
1624,-0.1502874755859375,9.888436889648437,0.7861651611328125
1691,0.03457809448242188,10.005942535400392,0.8514294433593751
1758,-0.10448272705078125,9.977202301025391,0.9122030639648437
1824,-0.006586303710937501,9.947863311767579,0.8116122436523437
1891,-0.140108642578125,9.821076965332031,0.7813751220703126
1958,-0.05284011840820313,9.879006500244142,0.8042774963378907
2024,-0.0437091064453125,9.743238830566407,0.9095086669921876
2091,-0.08247848510742188,9.970316619873048,0.729283447265625
2158,-0.028291168212890627,9.698930969238281,0.8449928283691407
2224,0.08367599487304687,9.946216735839844,0.7915539550781251
2291,0.13367202758789062,9.497599639892579,0.7743397521972657
2358,0.041164398193359375,9.78844482421875,0.6734495544433594
2424,0.20447479248046876,9.690099334716797,0.7852670288085938
2491,0.05673202514648438,9.805958404541016,0.8044271850585938
2558,0.026943969726562503,9.478589172363282,0.9514215087890625
2624,0.029937744140625,9.697733459472657,1.0642868041992188
2691,0.233514404296875,9.605375518798828,0.9755213928222657
2758,0.35356475830078127,9.819131011962892,0.9842033386230469
2824,0.11032058715820313,9.552834777832032,0.9128018188476563
2891,-0.04266128540039063,9.779164123535157,0.8638536071777344
2958,0.09684860229492188,9.69309310913086,0.9788145446777344
3024,0.19714004516601563,9.7573095703125,0.8105644226074219
3091,-0.07349716186523438,9.946815490722656,0.10208770751953125
3158,-0.1830693054199219,9.807155914306641,-0.8174501037597657
3224,-0.09370513916015626,9.75970458984375,-0.015567626953125
3291,-0.5427713012695313,10.26460464477539,-0.48693740844726563
3358,-0.049097900390625004,9.443711700439454,-0.024998016357421875
3424,-0.3909869384765625,10.616373138427734,-0.884959716796875
3491,-0.19115249633789064,11.147468719482422,-0.6054908752441407
3558,-0.4041595458984375,9.90819580078125,-0.39158569335937504
3624,-0.38634658813476563,10.075697479248047,0.5312452697753907
3691,-0.29189300537109375,9.912985839843751,-0.3960763549804688
3758,-0.3507206726074219,9.681716766357422,-0.30671218872070316
3824,-0.5336402893066406,9.960137786865236,0.18276992797851563
3891,-0.5295986938476562,10.259964294433594,-0.23052062988281252
3958,-0.5649252319335938,9.699978790283204,-0.3406915283203125
4024,-0.2951861572265625,9.980794830322266,-0.72090087890625
4091,-0.613125,9.845775604248047,-0.8985813903808594
4158,-0.622705078125,10.160421295166016,-0.8105644226074219
4224,-0.6800358581542969,10.36848861694336,-1.0114466857910156
4291,-0.6966513061523438,10.271041259765626,-1.8387762451171876
4358,-0.25342300415039065,10.159822540283203,-1.0231224060058595
4424,-0.26345214843750003,10.099647674560547,-0.724493408203125
4491,-0.0724493408203125,9.505233764648438,-0.8131091308593751
4558,-0.3674858093261719,9.497749328613281,-0.8030799865722656
4624,-0.24743545532226563,10.1692529296875,-1.035845947265625
4691,-0.13007949829101564,9.677525482177735,-0.8815168762207032
4758,-0.062120819091796876,10.309211883544922,-0.9145980834960938
4824,-0.13921051025390627,9.776469726562501,-0.6608757019042969
4891,-0.15597564697265626,9.477840728759766,-0.46059219360351566
4958,0.20043319702148438,9.354197845458986,-0.5568420410156251
5024,-0.21345611572265627,10.396630096435548,-0.9131011962890625
5091,0.135318603515625,10.189011840820314,-1.331481170654297
5158,0.09011260986328125,8.929381256103516,-0.3824546813964844
5224,-0.10328521728515626,10.247240753173829,-0.7572752380371094
5290,-0.3573069763183594,10.384505310058595,-1.2853770446777344
5357,0.19130218505859375,9.634714508056641,-0.5665718078613281
5424,-0.3040177917480469,9.587562561035156,0.1974394226074219
5490,0.027991790771484375,10.303523712158203,-0.0061372375488281256
5558,-0.25956024169921876,9.527537384033204,-0.6732998657226563
5624,-0.5092410278320313,10.358609161376954,-0.8229885864257813
5691,0.18920654296875,9.91972183227539,-0.28156448364257813
5757,-0.38814285278320315,9.83245330810547,-0.3082090759277344
5824,-0.035176849365234374,9.85879852294922,-0.6081852722167969
5890,0.10508148193359376,9.264534301757813,-0.3595523071289063
5958,0.11541000366210938,10.311606903076173,-0.2315684509277344
6024,0.24563919067382814,10.741512908935547,-0.5902226257324219
6091,-0.48948211669921876,10.008038177490235,-1.0768606567382812
6158,0.8110134887695313,10.370883636474609,-0.5405259704589844
6224,-0.41763153076171877,10.882369995117188,-0.3764671325683594
6291,1.3451028442382813,10.360255737304689,-0.6288423156738282
6358,0.2173480224609375,10.619815979003906,-1.0809022521972658
6424,0.4171824645996094,10.727292480468751,-0.5387297058105469
6491,-0.5489085388183594,10.48823959350586,-0.7921527099609376
6558,0.6791377258300781,9.420659637451172,-1.0294093322753908
6624,-0.124541015625,10.116412811279297,-0.8997789001464844
6690,-0.2329156494140625,9.667646026611328,-0.408350830078125
6757,0.5942642211914063,9.524842987060547,-0.9617500305175781
6824,-0.21869522094726562,9.879754943847656,-1.714684295654297
6890,0.7170089721679688,9.756261749267578,-1.0841954040527344
6957,-0.0556842041015625,9.443861389160157,-0.5096900939941407
7024,0.2528242492675781,9.808802490234376,-0.29309051513671874
7091,-0.14190490722656252,10.496173095703126,0.5397775268554688
7157,0.6860234069824219,10.213860168457032,0.36000137329101567
7224,0.33545242309570317,9.198371887207031,1.5714321899414063
7291,0.9524693298339845,9.528285827636719,1.1984078979492188
7358,2.635718994140625,9.916129302978517,1.390159149169922
7424,1.021326141357422,11.33128646850586,1.3584251403808594
7490,-0.45655059814453125,9.630672912597657,1.7862355041503908
7558,0.762813720703125,10.162666625976563,0.38634658813476563
7624,0.9159452819824219,9.623936920166017,0.8128097534179688
7691,1.1787986755371094,9.028325500488283,0.7146139526367188
7757,-0.28096572875976566,9.65043182373047,0.6740483093261719
7824,0.5327421569824219,9.504635009765625,1.623673553466797
7891,0.547261962890625,9.27680877685547,1.3216017150878907
7958,0.8408015441894532,10.584339752197266,1.0566526794433595
8024,0.39966888427734376,9.347012786865236,1.3486953735351563
8091,0.5638774108886719,10.52895492553711,0.056282958984375006
8157,0.3698808288574219,8.426726531982423,1.2418176269531251
8224,-0.42152343750000004,9.756561126708984,0.9166937255859375
8291,0.24414230346679688,10.416838073730469,1.1796968078613281
8358,1.179397430419922,9.358838195800782,0.9439370727539063
8424,-0.14998809814453126,9.358389129638672,-0.27303222656250004
8490,0.6583309936523438,9.723180541992187,-0.17079483032226564
8558,-0.2966830444335938,9.355844421386719,-0.08277786254882813
8624,0.036524047851562505,9.116791534423829,0.1538800048828125
8691,0.19594253540039064,8.913514251708985,-0.4806504821777344
8758,-0.3848497009277344,9.454638977050783,0.10193801879882813
8824,-0.2998265075683594,10.075098724365235,-0.1279838562011719
8891,-0.6839277648925781,9.830357666015626,1.3729449462890626
8957,-0.8589138793945313,9.51631072998047,1.5298187255859377
9024,-0.7966433715820312,9.667496337890626,1.3781840515136718
9091,-0.22348526000976562,10.209519195556641,1.7332456970214845
9158,-0.5812413024902344,10.230924682617188,0.9921368408203125
9224,0.8363108825683594,10.503657531738282,0.531544647216797
9291,-0.111368408203125,9.576784973144532,0.6068380737304688
9358,1.5991246032714845,8.765023040771485,0.8080197143554688
9424,1.5190411376953126,9.032367095947267,0.6981481933593751
9491,0.8452922058105469,10.090816040039064,0.38574783325195316
9557,0.8131091308593751,8.902886352539063,1.1273057556152344
9624,1.3982423400878907,10.811118164062501,-0.2484832763671875
9691,0.9642947387695313,9.804012451171875,0.14938934326171877
9758,0.5834866333007813,9.626930694580079,0.15432907104492188
9824,0.877624969482422,10.38570281982422,-0.15837066650390627
9891,0.5686674499511719,9.411528625488282,-0.07274871826171875
9957,0.5260061645507813,9.93693603515625,0.2233355712890625
10024,-0.07319778442382813,9.58576629638672,0.30326934814453127
10091,-0.15627502441406252,9.098080444335938,0.4972659301757813
10158,-0.39817199707031253,9.092242584228517,0.7807763671875
10224,-0.11316467285156251,9.83110610961914,0.281414794921875
10291,-0.44457550048828126,10.723699951171875,-0.37631744384765625
10358,-1.06099365234375,9.774224395751954,0.22722747802734375
10424,-0.9283694458007813,9.802066497802734,-0.26539810180664064
10491,-0.42122406005859375,10.020312652587892,-0.2484832763671875
10557,-0.5059478759765625,9.127269744873047,0.45655059814453125
10624,-0.4646337890625,9.704918518066407,-0.1646575927734375
10691,-0.017962646484375,10.402318267822267,-0.5745053100585937
10757,-0.3511697387695313,9.936786346435547,-0.5186714172363281
10824,0.16660354614257813,11.125464477539063,-0.6740483093261719
10891,-0.22019210815429688,9.200467529296876,0.21016296386718752
10958,-0.011825408935546875,10.440638580322267,-0.6927593994140625
11024,-0.11660751342773439,11.896062011718751,-0.9113049316406251
11091,-0.0028440856933593752,9.490115203857423,-0.29593460083007816
11158,-0.2755769348144531,8.91037078857422,-0.20267852783203125
11224,-0.15043716430664064,10.45426025390625,-0.9410929870605469
11291,-0.8000862121582032,10.067165222167969,-1.1213182067871095
11357,0.19040405273437502,8.522078247070313,0.19714004516601563
11424,-0.051043853759765626,8.517886962890625,0.49786468505859377
11491,0.12588821411132814,8.554111633300781,1.226100311279297
11558,-0.5165757751464845,10.681637420654297,0.7575746154785157
11624,-0.7511380004882813,11.243568878173829,-0.12783416748046875
11691,0.0628692626953125,9.310339050292969,-0.6327342224121094
11757,-0.6863227844238282,10.80677719116211,-0.3691323852539063
11824,0.2273771667480469,8.823551330566406,-0.183218994140625
11891,-0.37736526489257816,11.37918685913086,-0.7198530578613281
11957,-0.5138813781738282,10.462942199707031,-0.6803352355957032
12024,0.4581971740722656,9.708810424804687,-0.3008743286132813
12091,0.19354751586914062,9.571396179199219,-0.5956114196777345
12158,-0.4447251892089844,9.6183984375,-0.023351440429687502
12224,-0.12304412841796876,9.080117797851562,0.056282958984375006
12291,-0.683778076171875,10.926378479003906,-0.5742059326171876
12358,-0.13786331176757813,9.76449462890625,-0.10627899169921876
12424,-0.4902305603027344,11.286529541015625,-1.251397705078125
12491,0.14504837036132814,9.680519256591797,-0.512384490966797
12558,0.6291416931152344,9.883048095703126,0.3441343688964844
12624,0.4549040222167969,10.542277221679688,0.1395098876953125
12691,-0.5619314575195313,10.322833557128908,-0.3418890380859375
12758,0.6737489318847657,11.850406951904297,-0.4140390014648438
12824,-0.3097059631347656,9.878557434082031,-0.3234773254394531
12891,-0.5120851135253907,10.808573455810548,-1.0168354797363282
12958,-0.5105882263183594,10.268197174072267,-0.14953903198242188
13024,-0.5505551147460938,11.066337432861328,0.44203079223632813
13091,-0.8234376525878907,8.800948333740235,1.6193325805664063
13158,-0.7626640319824219,11.744427337646485,0.317340087890625
13224,-1.4250366210937502,11.531270599365236,1.097966766357422
13291,-0.3644920349121094,9.2495654296875,1.5184423828125
13358,-0.9300160217285157,9.360035705566407,0.12244537353515626
13424,0.29713211059570316,8.806337127685547,1.214125213623047
13491,-0.9557624816894532,11.066187744140626,0.8101153564453125
13558,-1.508712615966797,9.633816375732422,0.9000782775878907
13624,0.5773493957519532,9.002279663085938,0.6039939880371094
13691,-0.8744815063476563,10.514285430908204,0.5242098999023438
13758,-0.14055770874023438,10.084229736328126,0.2748284912109375
13824,-2.2050645446777346,8.971443786621094,0.1993853759765625
13891,-0.144898681640625,8.384813690185547,0.12124786376953126
13958,-2.62733642578125,13.905184020996094,-0.7165599060058594
14024,-1.3906082153320314,10.885363769531251,0.5026547241210938
14091,-1.6783099365234375,9.810598754882813,1.1735595703125001
14158,-0.6453080749511719,9.599088592529297,1.5754737854003906
14224,-0.937500457763672,10.795550537109376,0.801134033203125
14291,-0.09864486694335937,8.819210357666016,1.7378860473632813
14358,0.5183720397949219,9.773775329589844,1.0282118225097656
14424,0.3933819580078125,9.541907501220704,0.5969586181640625
14491,0.686173095703125,9.893675994873048,0.5441184997558594
14558,-0.3784130859375,10.216255187988281,1.364113311767578
14624,-0.508941650390625,10.021809539794923,1.578168182373047
14691,0.29728179931640625,10.215955810546875,0.5721102905273437
14758,0.781973876953125,9.362430725097656,0.6914122009277344
14824,0.5906716918945313,10.6961572265625,1.2108320617675783
14891,-0.2125579833984375,6.083349609375,-0.5530998229980469
14958,0.9020242309570313,5.361700286865235,-1.6842974853515627
15024,1.330433349609375,10.970386962890625,1.4973362731933595
15091,-0.4819976806640625,13.630205841064454,1.2195140075683595
15158,1.7559983825683594,10.506501617431642,-0.7107220458984376
15224,0.09550140380859376,10.002350006103516,-0.8128097534179688
15291,0.07978408813476563,12.48613494873047,0.08187973022460938
15357,0.5833369445800781,9.620045013427735,-0.044756927490234376
15424,0.6255491638183595,8.853938140869142,-0.7375163269042969
15491,0.0748443603515625,10.862461395263672,0.11181747436523438
15558,-0.10029144287109376,10.48434768676758,0.9216334533691407
15624,0.683778076171875,9.357041931152343,-0.03981719970703125
15692,1.5905923461914064,9.82242416381836,-0.8089178466796876
15758,1.1867321777343751,10.690469055175782,0.27452911376953126
15824,0.4782554626464844,10.94763427734375,1.8098863220214845
15891,0.7330256652832031,10.919941864013673,1.6646882629394533
15958,0.135318603515625,10.101443939208984,0.8505313110351563
16024,1.2147239685058595,8.304580535888672,0.2912942504882813
16091,0.7083270263671876,8.579708404541016,1.9161653137207033
16158,0.26315277099609374,11.465856628417969,1.2281959533691407
16224,0.3784130859375,10.91604995727539,1.5624508666992187
16291,1.016536102294922,9.97810043334961,1.618733825683594
16358,0.5060975646972656,9.463320922851564,1.02746337890625
16424,0.15777191162109375,9.793085174560547,0.8840615844726563
16491,0.0161663818359375,9.109307098388673,1.7943186950683594
16558,0.25357269287109374,9.475445709228516,1.750609588623047
16624,0.3632945251464844,10.542576599121094,0.6355783081054688
16691,0.7863148498535156,9.246871032714845,1.7226177978515627
16758,0.11526031494140626,9.405092010498047,2.323019256591797
16824,0.20686981201171875,9.03161865234375,2.352058868408203
16892,0.5930667114257813,10.66502197265625,3.3364118957519535
16958,-0.719703369140625,8.651708679199219,2.7903474426269534
17024,-0.19878662109375,8.443791046142579,2.172432403564453
17092,1.7787510681152345,8.97563507080078,1.6052618408203125
17158,0.30985565185546876,10.039323120117189,3.2082783508300783
17224,0.06780899047851563,10.06671615600586,3.7152740478515627
17292,-0.09265731811523438,9.790390777587891,2.5441094970703126
17358,0.7921527099609376,9.315278778076172,2.5378225708007816
17424,0.4878355407714844,10.673853607177735,1.5780184936523438
17492,0.02155517578125,9.630523223876954,1.5115567016601563
17558,-0.23426284790039065,9.660760345458986,1.7609381103515627
17624,-0.4770579528808594,9.266180877685548,1.4429992675781251
17691,-0.2537223815917969,9.574988708496095,1.2940589904785156
17758,0.346080322265625,9.811197509765625,1.0042616271972657
17824,0.8622070312500001,9.249864807128906,0.7108717346191407
17891,-0.10223739624023438,9.492510223388672,2.065854034423828
17958,0.9024732971191407,9.506880340576172,1.3448034667968751
18024,1.0753637695312501,9.81763412475586,0.9849517822265625
18091,0.42346939086914065,8.65604965209961,1.548230438232422
18158,-0.45535308837890626,10.19170623779297,1.3669573974609375
18224,0.9818083190917969,8.58419906616211,0.9852511596679688
18291,-0.05523513793945313,9.631421356201173,1.433419189453125
18358,-0.13995895385742188,9.624835052490235,0.9949809265136719
18424,0.6252497863769532,9.866582336425783,1.2162208557128906
18492,-0.054636383056640626,9.781259765625,1.5926879882812501
18558,0.844244384765625,9.927056579589845,1.787882080078125
18624,0.55324951171875,9.636810150146484,1.4632072448730469
18691,0.26345214843750003,9.861492919921876,0.7241940307617187
18758,0.23516098022460938,9.074130249023439,1.001267852783203
18824,1.3448034667968751,8.94345199584961,1.2199630737304688
18891,0.800984344482422,9.144933013916017,1.194965057373047
18958,0.9313632202148437,10.737920379638673,1.8303936767578126
19024,0.38200561523437504,9.738897857666016,1.6947756958007814
19091,1.1954141235351563,9.797126770019531,0.7620652770996094
19158,1.1719129943847657,8.794062652587892,0.44382705688476565
19224,0.5583389282226563,9.646839294433594,1.0289602661132813
19291,-0.1478924560546875,9.919123077392578,2.136507110595703
19358,1.1120375061035157,10.21520736694336,1.6337026977539064
19425,-0.08113128662109376,10.733429718017579,0.8945397949218751
19492,1.3019924926757813,9.538764038085938,1.1439212036132813
19558,1.277742919921875,9.446855163574218,0.7644602966308595
19624,0.910107421875,9.22411834716797,1.4676979064941407
19691,1.3608201599121095,10.068961486816407,1.7778529357910158
19758,1.3190570068359375,9.987081756591797,0.8382568359375
19824,0.6584806823730469,8.858877868652344,1.1386820983886718
19892,0.9821076965332032,8.789122924804689,1.0835966491699218
19958,0.8128097534179688,10.069410552978516,0.8764274597167969
20024,1.4766792297363283,10.462942199707031,1.0265652465820314
20092,0.95561279296875,9.4651171875,1.4102174377441408
20158,0.8135581970214845,9.709558868408203,0.8791218566894532
20224,0.7840695190429688,9.361382904052736,1.2599299621582032
20292,0.06735992431640625,9.649833068847657,1.68848876953125
20358,1.7296531677246094,8.809779968261719,1.1151809692382812
20424,-0.05598358154296875,9.517059173583984,1.4144087219238282
20492,0.36434234619140626,10.086624755859376,1.853445739746094
20558,0.11091934204101563,10.064620513916017,1.5869998168945314
20624,-0.0580792236328125,10.220895538330078,2.095941467285156
20692,0.9515711975097657,9.235794067382812,2.2815554809570315
20758,-0.20387603759765627,9.756112060546876,1.9495458984375
20824,-0.19055374145507814,9.962682495117187,1.2159214782714844
20892,-0.10732681274414063,9.644593963623047,1.6479231262207032
20958,-0.31689102172851563,8.299341430664063,0.5298980712890625
21024,0.4507127380371094,9.877958679199219,-0.5152285766601563
21092,-0.520916748046875,10.337952117919922,0.9077124023437501
21158,-0.09475296020507813,8.611143035888672,1.068029022216797
21224,-0.2165995788574219,9.370962982177735,0.43619293212890625
21292,0.9466314697265625,8.91575958251953,0.286204833984375
21358,-0.20791763305664063,10.319540405273438,0.17663269042968752
21424,-0.5860313415527344,10.512040100097657,1.4359638977050782
21492,-1.0014175415039064,9.296417999267579,0.2836601257324219
21558,1.1440708923339844,10.030042419433594,-0.7174580383300782
21624,1.1886781311035157,10.242750091552734,-0.5114863586425782
21692,0.20597167968750002,9.15271682739258,0.15612533569335937
21758,0.13067825317382814,10.118059387207031,-1.636995849609375
21824,0.5466632080078125,8.884025573730469,-0.4578977966308594
21892,0.7803273010253907,11.133697357177734,-0.985550537109375
21958,-0.3921844482421875,10.606643371582031,-0.19235000610351563
22024,-0.16510665893554688,9.652976531982423,0.21510269165039064
22092,0.7433541870117187,9.241781616210938,0.3309617614746094
22158,-0.3980223083496094,11.134296112060547,-0.05164260864257813
22224,-0.19594253540039064,9.498797149658204,0.4932243347167969
22292,-0.03457809448242188,9.292376403808595,1.0687774658203126
22358,-0.6221063232421875,10.536888427734375,-0.03936813354492188
22424,-0.045205993652343755,8.887169036865235,0.7009922790527344
22492,-0.9048683166503907,10.119705963134766,0.8747808837890625
22558,0.6111790466308594,9.46751220703125,0.34862503051757815
22624,-0.931512908935547,9.67632797241211,-1.0024653625488282
22692,1.0949729919433595,9.689949645996094,-1.2316387939453126
22758,-0.22378463745117189,9.664652252197266,0.44307861328125003
22824,-1.25738525390625,10.504405975341797,0.5165757751464845
22892,-0.11630813598632814,10.760074310302734,0.4032614135742188
22958,-0.6427633666992187,10.52655990600586,1.200952606201172
23024,0.49711624145507816,9.30749496459961,-0.3035687255859375
23092,-0.6026467895507813,9.157656555175782,0.49831375122070315
23158,-0.31284942626953127,10.942993927001954,-0.17573455810546876
23225,-0.7885601806640625,10.892698516845703,0.48559020996093755
23292,1.2362791442871095,9.261241149902345,1.5127542114257813
23358,-0.013172607421875001,9.148375854492189,0.238304443359375
23424,0.33635055541992187,9.71854019165039,0.21764739990234377
23492,0.19384689331054689,9.284891967773438,0.8062234497070313
23558,0.5493576049804688,9.22127426147461,0.8663983154296876
23624,0.1802252197265625,10.24634262084961,0.6029461669921875
23692,0.8984317016601563,8.579259338378908,-0.08292755126953126
23758,0.7976911926269532,9.368567962646486,-0.11705657958984375
23825,0.4848417663574219,9.66046096801758,0.7119195556640625
23892,2.1779708862304688,7.381001129150391,0.8887019348144531
23958,0.07095245361328126,10.677296447753907,0.3549119567871094
24025,0.16091537475585938,10.343789978027344,0.44337799072265627
24092,0.5721102905273437,9.193432159423828,-0.3683839416503906
24158,0.052241363525390626,8.220455474853516,0.6521937561035157
24224,1.1319461059570313,8.889713745117188,-0.25312362670898436
24292,-0.07619155883789062,10.675649871826172,-0.511336669921875
24358,0.8286767578125,10.120753784179689,-0.33171020507812504
24425,-0.781824188232422,7.875872039794922,0.00808319091796875
24492,2.625989227294922,9.549990692138673,0.9627978515625001
24558,-0.12708572387695313,12.457993469238282,0.7050338745117188
24625,0.11166778564453125,9.758956146240235,0.621507568359375
24692,1.5377522277832032,9.045839080810547,0.21420455932617188
24758,-0.1071771240234375,9.842033386230469,1.2473561096191408
24825,0.7737409973144531,9.405092010498047,0.8698411560058594
24892,0.16735198974609375,9.98378860473633,-0.6481521606445313
24958,0.9535171508789063,9.402696990966797,0.058677978515625
25025,0.5700146484375,9.448651428222657,0.7321275329589844
25092,0.6243516540527344,10.891800384521485,0.866847381591797
25158,0.22752685546875,9.80955093383789,0.866847381591797
25225,0.6015989685058594,10.971135406494142,-0.168848876953125
25292,0.8575666809082032,10.59691360473633,0.4816983032226563
25358,0.904119873046875,9.72467742919922,0.8312214660644531
25425,0.8246351623535156,10.123448181152344,0.9107061767578125
25492,0.9617500305175781,9.455387420654297,0.5734574890136719
25558,0.3010240173339844,9.508077850341797,0.26225463867187504
25624,0.37751495361328125,9.420360260009765,0.5846841430664063
25692,0.7382647705078126,9.68875213623047,0.4578977966308594
25758,0.9975256347656251,8.671168212890626,1.0683283996582031
25825,0.398770751953125,9.335935821533203,0.3345542907714844
25892,0.5692662048339844,8.13393539428711,1.1205697631835938
25958,0.2137554931640625,8.692573699951172,0.708776092529297
26025,1.0078541564941408,10.226733398437501,0.5282514953613282
26092,-0.16016693115234376,8.128396911621094,0.6924600219726563
26158,-0.029189300537109376,9.754016418457033,1.094673614501953
26225,1.085991668701172,7.697143707275391,0.317340087890625
26292,0.5867797851562501,9.639205169677735,0.0413140869140625
26358,-0.43828857421875,10.76606185913086,0.9129515075683594
26425,-0.7122189331054688,12.283606109619141,0.247884521484375
26492,-0.2552192687988281,7.7848612976074225,1.8311421203613283
26558,-0.3842509460449219,9.163195037841797,0.9608518981933595
26625,-0.27393035888671874,9.863738250732423,1.5371534729003906
26692,-0.3695814514160156,10.750344543457032,1.7083973693847656
26758,-0.009729766845703125,10.607391815185547,2.6036856079101565
26825,0.30865814208984377,10.958411865234375,1.3377680969238281
26892,-0.6628216552734375,9.985135803222656,0.2842588806152344
26958,-0.42227188110351566,8.485703887939454,0.5736071777343751
27025,0.8458909606933595,10.44273422241211,1.2421170043945313
27092,1.5088623046875,10.341844024658204,3.3781750488281252
27158,-0.8225395202636719,10.88581283569336,1.9383192443847657
27225,-0.7632627868652344,8.271798706054687,1.9621197509765627
27292,0.2537223815917969,9.049581298828125,0.7644602966308595
27358,0.03397933959960937,10.56443115234375,1.746867370605469
27425,0.8690927124023438,9.157656555175782,1.179397430419922
27492,-0.4685256958007813,11.684402160644531,1.20948486328125
27558,1.3524375915527345,11.521391143798828,0.06855743408203126
27625,-0.07544311523437501,12.265194396972657,2.634820861816406
27692,1.7988093566894532,8.85723129272461,0.7146139526367188
27759,-1.1792477416992189,7.414681091308594,2.261946258544922
27825,-0.17214202880859375,4.538711700439453,0.5508544921875
27892,-0.6593788146972657,8.116122436523439,1.2983999633789063
27958,2.178120574951172,12.251722412109375,1.9537371826171877
28025,-0.800984344482422,11.56210647583008,2.1200413513183594
28092,-0.31763946533203125,7.235054626464844,3.2753388977050784
28158,0.5797444152832032,9.358987884521484,2.2806573486328126
28225,0.8815168762207032,9.547745361328126,1.6079562377929688
28292,1.1305989074707032,8.479117584228517,1.490600280761719
28358,0.7203021240234375,10.217303009033204,1.2042457580566406
28425,0.35281631469726565,9.470056915283203,1.5390994262695312
28492,0.13921051025390627,8.567284240722657,0.9901908874511719
28558,0.8322692871093751,8.64691864013672,0.4604425048828125
28625,0.6649172973632813,10.195298767089843,1.0241702270507813
28692,0.9903405761718751,9.264983367919923,1.182840270996094
28758,0.8719367980957031,9.924062805175781,1.8510507202148438
28825,1.1383827209472657,9.79997085571289,1.242715759277344
28892,1.222507781982422,9.400002593994142,1.0038125610351563
28958,1.3753399658203125,10.534792785644532,1.4829661560058593
29025,1.9212547302246095,10.282716979980469,1.1518547058105468
29092,0.3104544067382813,9.668993225097656,1.4305751037597656
29158,1.0960208129882814,8.585995330810547,1.2802876281738282
29225,1.548230438232422,9.122030639648438,0.3399430847167969
29292,2.034419403076172,9.240135040283203,0.6879693603515625
29358,1.6337026977539064,10.272238769531251,1.2831317138671876
29425,1.943258972167969,11.120225372314454,0.3948788452148438
29492,2.343227233886719,8.64407455444336,1.0738668823242188
29558,2.2552102661132816,9.164392547607422,-0.07110214233398438
29625,1.3501922607421877,8.951535186767579,0.10553054809570313
29692,0.8629554748535156,9.464069366455078,0.7204518127441406
29758,2.245929565429688,11.005863189697266,0.24489074707031253
29825,1.409169616699219,9.773625640869142,0.9621990966796875
29892,0.986598358154297,10.565478973388672,1.4298266601562502
29958,1.1804452514648438,9.60208236694336,-0.07319778442382813
30025,0.48154861450195313,8.738378448486328,0.40131546020507813
30092,-0.4939727783203125,9.980345764160157,0.26689498901367187
30158,-0.46193939208984375,9.789792022705079,0.7647596740722656
30225,0.3836521911621094,9.77931381225586,1.2804373168945313
30292,0.5399272155761718,9.150770874023438,2.0550764465332034
30358,0.2844085693359375,9.871522064208985,1.5988252258300781
30425,0.3703298950195313,9.251810760498048,2.1405487060546875
30492,0.23845413208007812,8.820707244873047,1.3888119506835939
30558,-0.7969427490234375,8.956624603271484,1.1476634216308594
30625,1.8823356628417969,8.593180389404298,1.6134947204589845
30692,0.4079017639160156,10.336305541992187,1.1418255615234376
30758,-1.1358380126953125,10.168654174804688,1.6374449157714845
30825,0.3860472106933594,9.130562896728517,0.7240443420410156
30892,0.7637118530273438,11.086096343994141,0.7996371459960938
30958,-0.7000941467285157,10.909014587402345,1.7627343750000002
31025,-1.0783575439453126,9.705068206787109,1.826202392578125
31092,-1.080004119873047,10.140812072753906,1.6768130493164064
31159,-1.7826429748535157,9.77452377319336,0.9193881225585938
31225,-0.8687933349609376,8.193960571289063,1.4102174377441408
31292,-1.18553466796875,11.320359191894532,0.5201683044433594
31359,0.6515950012207031,11.30494125366211,0.16660354614257813
31425,-0.8379574584960938,9.708960113525391,2.229164428710938
31492,-0.4822970581054688,10.161469116210938,1.182840270996094
31559,-0.6255491638183595,10.120753784179689,1.5069163513183594
31625,-0.1538800048828125,11.025771789550781,1.653611297607422
31691,-0.4900808715820313,10.506351928710938,0.32227981567382813
31759,-0.6753955078125,9.530830535888672,0.8514294433593751
31825,-0.7499404907226563,10.247390441894531,0.829874267578125
31892,-0.5285508728027344,9.818232879638673,1.5696359252929688
31958,-0.38859191894531253,10.434052276611329,0.7176077270507812
32025,-0.4309538269042969,7.849377136230469,0.14759307861328125
32092,-0.09101074218750001,9.10676239013672,0.6798861694335938
32159,-0.4667294311523438,11.37963592529297,1.2139755249023438
32225,1.5169454956054689,10.167007598876953,2.2013223266601565
32292,-0.3097059631347656,9.636510772705078,2.5953030395507812
32358,-0.030237121582031252,8.5885400390625,1.749561767578125
32425,1.2091854858398439,9.236991577148437,0.029937744140625
32492,-0.33679962158203125,9.107959899902344,0.6256988525390625
32559,0.4891827392578125,10.10503646850586,1.7562977600097658
32625,0.2980302429199219,10.029743041992187,1.2952565002441407
32692,0.47571075439453125,10.718011779785156,0.9258247375488282
32758,0.49951126098632814,9.018745422363281,0.9895921325683594
32825,-0.3227288818359375,9.404044189453126,1.277593231201172
32892,0.5650749206542969,10.782228240966797,1.1982582092285157
32959,0.7879614257812501,9.05122787475586,0.5605842590332032
33025,-0.0700543212890625,9.01769760131836,0.8439450073242188
33092,0.2442919921875,9.810748443603517,1.5578105163574218
33159,0.17947677612304688,10.084529113769532,1.4148577880859377
33225,-0.29937744140625,10.086175689697265,1.8378781127929689
33292,0.5888754272460938,8.549022216796875,2.2252725219726566
33358,-0.6712042236328125,9.589957580566407,1.3180091857910157
33425,-0.17318984985351563,9.577084350585938,2.485132141113281
33492,0.3107537841796875,9.86837860107422,1.9068846130371095
33559,0.2165995788574219,9.628277893066407,1.9206559753417969
33625,-0.40805145263671877,9.092242584228517,2.5107289123535157
33692,-0.6882687377929688,9.788594512939454,1.922901306152344
33759,-0.5129832458496094,10.277777252197266,2.373164978027344
33825,0.15687377929687502,10.519674224853516,1.081201629638672
33892,-0.3251239013671875,10.18497024536133,1.8856288146972657
33959,-1.106349334716797,8.846603393554688,1.3950988769531252
34025,-0.6725514221191407,8.699309692382814,1.3768368530273438
34092,1.0039622497558593,9.44161605834961,1.475182342529297
34159,-0.6050418090820313,10.470726013183594,2.2710772705078126
34225,-0.5346881103515625,10.19604721069336,2.199526062011719
34292,-0.43125320434570313,10.788215789794922,1.5371534729003906
34359,-0.20492385864257814,9.744735717773438,2.329006805419922
34425,-0.6171665954589844,9.441316680908203,1.7786013793945314
34492,-0.24279510498046877,9.831854553222657,1.4037808227539064
34559,0.06481521606445313,10.300230560302735,1.6242723083496096
34625,-0.5150788879394531,9.854607238769532,1.645228729248047
34692,-0.4662803649902344,8.966204681396485,1.5498770141601563
34759,-0.55803955078125,9.42006088256836,1.914818115234375
34825,0.44786865234375,9.76449462890625,1.9052380371093751
34892,0.5345384216308594,9.69593719482422,2.1200413513183594
34959,0.1149609375,10.088720397949219,2.1969813537597656
35025,-0.17812957763671877,9.939929809570312,1.858385467529297
35092,-0.4550537109375,9.444460144042969,1.7774038696289063
35159,-0.08412506103515625,8.867859191894532,1.84656005859375
35225,0.32302825927734374,9.608369293212892,2.465672607421875
35292,-0.26225463867187504,10.022707672119141,2.4230113220214844
35358,0.51732421875,9.680668945312501,2.1441412353515625
35425,0.48514114379882817,9.684560852050781,2.568209381103516
35492,0.42661285400390625,9.566007385253906,3.027154998779297
35559,0.2029779052734375,9.245374145507814,2.8692333984375002
35625,-0.13082794189453126,9.44161605834961,2.8533663940429688
35692,0.3823049926757813,9.42485092163086,2.9297076416015626
35759,0.20971389770507814,10.113718414306641,2.7563681030273437
35825,0.6607260131835938,9.529034271240235,2.4833358764648437
35892,0.35176849365234375,9.13026351928711,2.2772145080566406
35959,0.8638536071777344,9.746082916259766,2.8961773681640626
36025,0.310155029296875,9.917626190185548,3.0097911071777346
36092,0.5893244934082031,9.394015045166016,2.527793426513672
36159,0.7509883117675782,9.06514892578125,2.8419900512695313
36225,0.8590635681152344,9.4890673828125,2.392175445556641
36292,1.0171348571777343,9.314081268310547,1.4962884521484376
36358,0.7905061340332031,10.30292495727539,1.2196636962890626
36425,0.8481362915039063,9.880503387451173,1.4654525756835939
36492,0.33979339599609376,9.085057525634767,1.529219970703125
36559,0.6185137939453126,9.510023803710938,1.5661930847167969
36625,0.8292755126953125,9.437724151611329,1.4527290344238282
36692,0.3872447204589844,9.85071533203125,1.2998968505859376
36759,0.4673281860351563,9.672735443115235,1.1439212036132813
36825,0.6036946105957032,10.371482391357423,1.8423687744140627
36892,0.9877958679199219,9.718839569091797,1.590143280029297
36959,0.45101211547851566,9.566306762695312,1.382974090576172
37025,0.8562194824218751,9.574839019775391,1.5066169738769533
37092,0.47975234985351567,9.845625915527345,1.5438894653320314
37159,1.0379415893554689,9.268575897216797,1.2334350585937501
37225,0.6574328613281251,9.752220153808594,1.618733825683594
37292,1.1820918273925782,9.26243865966797,1.1443702697753906
37359,0.5610333251953126,9.272168426513673,1.4552737426757814
37425,0.6403683471679688,9.144483947753907,0.8523275756835937
37492,0.34143997192382813,9.14268768310547,1.622476043701172
37559,0.45146118164062504,10.274783477783204,1.7974621582031252
37625,0.6544390869140625,10.19604721069336,1.139729919433594
37692,1.2228071594238281,9.318422241210937,0.7104226684570313
37759,1.2064910888671876,9.769134979248047,1.3114228820800782
37825,1.3783337402343752,10.106832733154297,2.3436763000488283
37892,0.8445437622070313,9.452543334960938,2.5535398864746095
37959,1.3198054504394532,10.23915756225586,1.0759625244140625
38025,1.327738952636719,9.630074157714844,-0.8743318176269532
38092,0.7731422424316406,8.846603393554688,-1.017733612060547
38159,1.2000544738769532,11.424243164062501,-0.8625064086914063
38225,0.6108796691894531,11.934681701660157,-0.28186386108398437
38292,1.2157717895507814,8.49558334350586,-1.4275813293457031
38358,1.6477734375000002,10.612481231689454,-2.292333068847656
38425,2.4445664978027346,10.082433471679687,-0.6183641052246094
38492,2.4903712463378906,9.72572525024414,-1.1609857177734375
38559,3.1659164428710938,9.536369018554687,-0.9392967224121094
38625,3.4694851684570316,10.153685302734376,0.30416748046875003
38692,3.4512231445312502,9.017398223876954,-0.20986358642578126
38759,3.2217503356933594,10.650202789306642,-1.1741583251953125
38825,3.1262489318847657,10.594668273925782,-1.8419197082519532
38892,2.8933332824707034,9.928553466796876,-1.1307485961914063
38959,1.8826350402832033,11.588302001953126,-1.1216175842285157
39025,2.950514373779297,9.3262060546875,-0.5661227416992187
39092,1.839225311279297,10.36609359741211,-0.8782237243652344
39159,2.740950164794922,10.554551696777345,-1.1117381286621095
39225,2.7005342102050784,10.255323944091797,0.06586303710937501
39292,3.242706756591797,8.549171905517579,-0.37511993408203126
39359,3.919599151611328,10.18931121826172,-0.3550616455078125
39425,2.023492126464844,9.867181091308595,-0.16929794311523438
39492,2.790048065185547,9.965975646972657,-0.988993377685547
39559,0.23620880126953125,10.513986053466798,-0.6978488159179688
39625,1.4645544433593751,10.170300750732423,-0.24069946289062502
39692,0.0748443603515625,11.17800521850586,-0.17558486938476564
39759,1.2302915954589844,7.5859249877929695,0.16510665893554688
39825,3.30752197265625,8.253386993408203,-0.4459226989746094
39892,3.783981170654297,10.509345703125,0.6264472961425781
39959,-0.7071295166015625,11.007509765625,0.8402027893066407
40025,-1.5082635498046877,12.768896942138673,-4.2008642578125
40092,-0.7306306457519531,10.388846282958985,1.7967137145996095
40159,-0.7949967956542969,11.975696411132812,-0.3794609069824219
40225,1.8139279174804688,7.098538513183594,-1.2585827636718752
40292,1.679956512451172,9.271419982910157,0.7683522033691407
40359,2.9740155029296877,11.993060302734376,-2.5101301574707033
40425,1.8567388916015626,9.965526580810547,-0.944835205078125
40492,-0.7086264038085938,9.879006500244142,-0.15941848754882812
40559,-1.2751982116699219,10.285561065673829,0.439486083984375
40625,0.4441264343261719,7.742050323486328,-0.3730242919921875
40692,0.3884422302246094,8.440348205566407,-0.784368896484375
40759,-1.6360977172851563,11.860885162353517,-4.094285888671875
40825,-1.2841795349121095,11.298654327392578,-2.2944287109375003
40892,-0.8062234497070313,14.300062866210938,-2.434687042236328
40959,-1.1549981689453126,11.20869140625,-1.9484980773925782
41025,0.39128631591796875,10.065368957519532,0.5471122741699219
41092,-0.3649411010742188,10.456206207275391,-0.829874267578125
41159,0.6978488159179688,10.48389862060547,-1.0629396057128906
41225,-0.6924600219726563,13.869109039306641,-1.8624270629882813
41292,-0.4489164733886719,10.883118438720704,-0.4927752685546875
41358,4.597539367675782,8.879534912109376,3.2557296752929688
41425,-0.5789959716796875,11.356284484863282,3.3328193664550785
41492,2.692900085449219,8.845854949951173,0.9460327148437501
41559,0.46538223266601564,10.346035308837891,0.28889923095703124
41625,0.002544708251953125,10.324031066894532,1.5012281799316407
41692,0.8527766418457031,10.092013549804689,1.4587165832519533
41759,0.7929011535644531,9.714049530029298,1.2669653320312502
41825,0.01047821044921875,8.383765869140625,1.720671844482422
41892,0.014819183349609376,9.894723815917969,1.09452392578125
41959,-0.11570938110351563,9.466763763427736,0.8131091308593751
42025,-0.20402572631835938,11.266920318603516,1.5090119934082031
42092,0.15163467407226563,9.667795715332032,1.9705023193359377
42159,-0.6201603698730469,10.138866119384765,1.1192225646972658
42225,-0.23456222534179688,11.593092041015625,1.692081298828125
42291,0.8238867187500001,8.047864379882814,1.2014016723632812
42359,0.4950205993652344,10.123148803710938,-0.6894662475585938
42425,0.2567161560058594,9.199569396972656,-0.4891827392578125
42492,-0.9024732971191407,9.685458984375,-0.106578369140625
42559,-0.7788304138183594,8.48510513305664,-0.05044509887695313
42625,2.768193511962891,10.209519195556641,0.18950592041015626
42692,-0.3680845642089844,11.333831176757814,-0.8843609619140625
42759,-0.1071771240234375,10.597063293457031,-0.9595046997070313
42825,-0.8827143859863281,11.015592956542969,0.00089813232421875
42892,0.08666976928710939,8.301437072753906,-0.6732998657226563
42959,-1.2451107788085938,9.317973175048829,-0.24414230346679688
43025,-0.9169931030273438,9.919422454833985,-0.9011260986328126
43092,-1.5922389221191406,9.711953887939453,-0.31150222778320313
43159,-0.5569917297363282,10.483299865722657,-0.5954617309570313
43225,-0.2273771667480469,10.651849365234376,-0.896785125732422
43292,-0.8234376525878907,9.37650146484375,-1.488504638671875
43358,-1.4958393859863282,9.777517547607422,0.29952713012695314
43425,-0.4186793518066406,9.933343505859375,0.4465214538574219
43492,-0.9433383178710938,9.088799743652345,-1.59747802734375
43559,-0.8162525939941406,9.823022918701172,-1.0948233032226562
43625,-0.8445437622070313,12.137360229492188,-0.4926255798339844
43692,0.18755996704101563,7.979157257080079,0.29488677978515626
43759,-0.7691006469726563,8.616232452392579,-0.02484832763671875
43825,-0.5224136352539063,9.063352661132813,-0.15552658081054688
43892,-0.44846740722656253,9.760453033447266,-0.9608518981933595
43959,-0.20672012329101563,9.576784973144532,-1.1177256774902344
44025,-0.08696914672851563,9.462871856689453,-0.11241622924804688
44092,-0.5984555053710938,9.12786849975586,-0.2896476745605469
44159,0.11301498413085938,8.471034393310548,-0.4272116088867188
44225,-0.05643264770507813,10.180629272460939,-0.8512797546386719
44291,-0.019609222412109377,9.923613739013673,-0.17154327392578125
44359,-0.13786331176757813,11.007509765625,-0.4519102478027344
44425,0.07170089721679689,8.708590393066407,-0.5170248413085938
44492,0.9012757873535157,9.486522674560547,-0.7967930603027344
44559,-0.5278024291992188,8.69242401123047,-0.7809260559082032
44625,0.08801696777343751,9.404493255615234,-0.7550299072265625
44692,-0.41882904052734377,10.031539306640626,-0.02963836669921875
44758,-0.5228627014160157,10.884315948486329,-0.329315185546875
44825,-0.7357200622558594,8.788374481201172,-0.3126997375488281
44892,-1.0271640014648438,10.285261688232422,-0.5959107971191406
44959,0.3864962768554688,11.10286148071289,-1.337468719482422
45025,-0.4496649169921875,11.35808074951172,-1.293160858154297
45092,1.6830999755859375,8.858428802490234,1.0605445861816407
45159,-0.7936495971679688,12.414134674072267,-1.2829820251464845
45225,-0.5828878784179687,7.643255767822266,0.046403503417968756
45292,-0.021106109619140626,11.529624023437501,-1.4552737426757814
45359,-0.8062234497070313,8.731941833496094,-0.6515950012207031
45425,-0.6767427062988282,9.584718475341797,-0.45295806884765627
45492,0.8643026733398438,10.962752838134767,-0.7355703735351563
45559,-0.40311172485351565,10.383607177734376,0.08532257080078126
45625,-0.37511993408203126,10.80483123779297,0.4489164733886719
45692,-0.8108638000488282,12.165501708984376,0.01916015625
45759,-0.8764274597167969,10.561587066650391,1.5361056518554688
45825,-0.6233038330078126,8.382268981933594,-0.5342390441894531
45892,-0.07020401000976563,8.00939437866211,0.12618759155273437
45959,-0.3541635131835938,9.639654235839844,1.9233503723144532
46025,0.46104125976562504,10.247839508056641,2.570754089355469
46092,0.32213012695312504,11.463311920166015,1.2072395324707033
46159,-0.9196875,10.69810317993164,2.271676025390625
46225,1.4103671264648439,7.839198303222656,0.852626953125
46292,1.5934364318847658,9.178912353515626,0.7009922790527344
46359,0.5834866333007813,11.046728210449219,5.191953277587891
46425,-1.2052935791015627,11.088341674804688,4.471351776123047
46492,0.9380992126464844,12.92592041015625,2.7231372070312503
46559,0.6906637573242188,9.25719955444336,-2.1806652832031252
46625,-0.086220703125,7.945626983642579,-1.2683125305175782
46692,-0.4331991577148438,9.17531982421875,0.5875282287597656
46758,0.5457650756835938,10.97592544555664,2.2375469970703126
46825,0.43185195922851566,10.841355285644532,2.4936643981933595
46892,-0.020806732177734377,9.184151458740235,1.2347822570800782
46959,-0.3603007507324219,8.093369750976564,0.3688330078125
47025,-0.2477348327636719,9.673483886718751,0.6875202941894532
47092,-1.275347900390625,7.018604736328125,1.4301260375976563
47159,-0.0664617919921875,9.01245849609375,1.3714480590820313
47225,-0.8042774963378907,9.059760131835938,1.6232244873046875
47292,-1.3748908996582032,13.906680908203125,2.057172088623047
47358,1.1120375061035157,9.281748504638673,3.456911315917969
47425,-0.9006770324707032,10.875634002685548,1.6483721923828125
47492,0.11526031494140626,11.114836578369141,1.8519488525390626
47559,0.43888732910156253,10.887459411621094,1.5606546020507814
47624,-0.1682501220703125,9.831255798339845,2.8337571716308596
47692,-0.7836204528808595,8.1957568359375,1.8350340270996095
47759,-0.4267625427246094,10.28855484008789,0.8545729064941406
47825,0.19669097900390625,10.403216400146485,2.730172576904297
47892,-0.16705261230468751,10.916349334716797,1.578168182373047
47959,0.6462062072753907,8.91575958251953,1.0518626403808595
48025,-0.48678771972656254,9.627080383300783,1.1846365356445314
48092,-0.2824626159667969,9.755064239501953,1.1073971557617188
48159,-0.3085084533691406,9.267677764892579,1.2169692993164063
48225,-0.10433303833007813,9.431287536621094,1.4359638977050782
48292,0.30731094360351563,8.52956268310547,2.1260289001464843
48358,-0.4017645263671875,11.18129837036133,1.99984130859375
48425,-0.15702346801757813,10.38285873413086,1.7455201721191407
48492,-0.4555027770996094,9.19253402709961,1.0457254028320313
48559,-0.23007156372070314,9.939031677246094,1.4162049865722657
48625,-0.007634124755859375,10.493778076171875,1.7477655029296877
48692,-0.5713618469238282,11.151061248779298,0.9620494079589844
48759,-0.7535330200195313,9.586814117431642,1.8411712646484375
48825,0.5548960876464843,9.428144073486328,0.41269180297851565
48892,0.25806335449218754,9.36737045288086,0.7936495971679688
48959,0.24623794555664064,9.938582611083985,1.3753399658203125
49025,-0.7147636413574219,8.531957702636719,1.3223501586914064
49092,-0.0622705078125,9.486073608398438,1.57352783203125
49159,-0.7063810729980469,9.026229858398438,1.5006294250488281
49225,0.21151016235351563,9.700128479003906,1.6054115295410156
49292,0.8449928283691407,10.201136627197267,1.49688720703125
49359,0.5608836364746094,8.822653198242188,1.4578184509277345
49425,-0.09535171508789063,9.871671752929688,1.2555889892578125
49492,-0.128133544921875,9.537117462158204,1.5988252258300781
49558,0.4056564331054688,10.062674560546876,1.8074913024902344
49625,-0.07903564453125,10.543474731445313,0.49052993774414066
49692,-0.38814285278320315,10.260263671875,1.9507434082031252
49759,-0.17812957763671877,10.256072387695314,1.292113037109375
49825,0.09849517822265626,9.084608459472657,0.9946815490722657
49892,-0.5057981872558595,8.231532440185548,0.6771917724609375
49959,0.4674778747558594,10.068662109375001,0.8539741516113282
50025,-0.24219635009765625,9.678872680664062,1.9772383117675782
50092,1.6328045654296877,10.314900054931641,1.1558963012695314
50159,-0.3694317626953125,9.635313262939453,2.2863455200195313
50225,0.2808160400390625,7.763306121826172,0.15223342895507813
50292,-0.08367599487304687,7.173981628417969,1.4964381408691407
50359,0.11331436157226563,9.253607025146485,2.156266021728516
50425,-0.2177970886230469,10.136770477294922,-0.3897894287109375
50492,-0.0056881713867187505,9.1729248046875,0.09086105346679688
50559,1.0518626403808595,8.449179840087892,-0.08247848510742188
50625,-1.0835966491699218,9.5273876953125,-0.5403762817382812
50692,-1.76033935546875,14.881603546142578,2.7333160400390626
50759,-0.3020718383789063,12.542417907714844,0.4935237121582032
50825,2.27287353515625,10.944341125488283,-0.8997789001464844
50892,0.03981719970703125,12.566517791748048,1.2593312072753906
50959,-0.6313870239257813,14.607972564697267,0.5791456604003906
51025,-0.7848179626464844,11.580667877197266,2.0480410766601564
51092,0.9538165283203125,10.38525375366211,-0.5643264770507813
51159,-0.6962022399902345,11.999197540283204,-3.5947746276855472
51225,-0.4070036315917969,8.655750274658203,1.8616786193847656
51292,-0.8315208435058594,12.082723846435547,2.1727317810058593
51359,-0.901724853515625,11.799213409423828,-1.5212864685058594
51425,-0.9351054382324219,15.5053564453125,-3.183879089355469
51492,-0.8662486267089844,8.497379608154297,2.4421714782714843
51559,-0.4764591979980469,11.26093276977539,1.5450869750976564
51625,-0.2748284912109375,9.733509063720703,-1.757794647216797
51692,1.2662168884277345,8.85438720703125,1.644031219482422
51759,-0.6017486572265626,11.006761322021484,2.0276834106445314
51825,0.57240966796875,10.167007598876953,-0.2881507873535156
51892,0.23516098022460938,8.741072845458985,-2.4304957580566406
51959,-0.6521937561035157,12.653486938476563,1.736239471435547
52025,-0.11630813598632814,5.314099273681641,0.7490423583984376
52092,-0.13666580200195313,6.797215118408204,-0.17318984985351563
52159,-0.5733078002929688,11.394305419921876,2.2608984375000003
52225,-0.6592291259765626,11.22395965576172,2.575843505859375
52292,-0.6976991271972657,8.471782836914063,-2.2339544677734375
52359,0.22243743896484375,8.589887237548828,-1.1512559509277345
52425,-1.9169137573242188,6.915768585205078,1.397493896484375
52492,-1.0162367248535156,9.886041870117188,2.249971160888672
52559,-0.9225315856933595,6.504124603271484,-0.5566923522949219
52625,-0.5980064392089844,10.010133819580078,0.3694317626953125
52692,-0.7300318908691407,8.7035009765625,1.064586181640625
52759,0.6972500610351563,6.074368286132813,-1.203347625732422
52825,-1.0826985168457033,12.358899536132814,2.025737457275391
52892,1.8890716552734377,10.993888092041017,-0.7234455871582032
52959,-0.18681152343750002,7.876171417236328,1.9037411499023438
53025,1.3751902770996094,10.67744613647461,1.2877720642089845
53091,-0.5745053100585937,8.973389739990235,-0.6749464416503906
53159,-0.705333251953125,10.418933715820312,-1.4712904357910157
53225,-0.32572265625,9.974807281494142,0.8755293273925782
53292,-0.4321513366699219,10.086924133300782,0.9174421691894532
53358,-0.43828857421875,9.29117889404297,0.16390914916992189
53425,-0.06945556640625,14.00891830444336,2.532733154296875
53492,-1.5620018005371095,14.63641342163086,3.586242370605469
53559,0.36134857177734375,9.20361099243164,0.36539016723632817
53625,0.14699432373046875,4.185446319580079,-2.0372634887695313
53692,-0.2130070495605469,7.046596527099609,2.1609063720703126
53758,-0.21046234130859376,10.820398864746094,2.967728576660156
53825,-0.7855664062500001,12.267140350341798,3.7905674743652344
53892,1.2181668090820312,8.01897445678711,-0.11900253295898439
53959,-0.3150947570800781,8.244255981445313,-0.6973997497558594
54025,-0.076640625,8.990753631591797,0.15118560791015626
54092,2.159259796142578,9.837692413330078,2.0779788208007814
54159,0.6210585021972657,11.856095123291016,1.440454559326172
54225,-0.7984396362304688,10.53419403076172,1.0099497985839845
54292,0.10852432250976562,9.771829376220703,0.5334906005859376
54359,-0.02424957275390625,9.380393371582032,0.17932708740234377
54425,0.07708969116210938,9.550589447021485,0.3936813354492188
54492,0.918489990234375,8.382718048095704,2.5105792236328126
54559,-0.13217514038085937,10.11506561279297,1.739832000732422
54625,-0.4549040222167969,10.252779235839844,1.2892689514160156
54692,0.8798703002929688,8.297994232177734,1.0629396057128906
54759,-1.1358380126953125,10.208321685791017,1.723216552734375
54825,-0.09580078125000001,8.628357238769532,2.1844075012207034
54892,-1.6143928527832032,9.490713958740235,2.376009063720703
54959,-0.748443603515625,7.882158966064454,0.7702981567382813
55025,-1.2898677062988282,8.230035552978515,1.0106982421875002
55091,-1.4159056091308595,11.619736633300782,1.8705102539062501
55159,0.49247589111328127,10.222242736816407,2.298769683837891
55225,-0.03188369750976563,8.049960021972657,2.202070770263672
55292,-0.10747650146484375,8.989406433105469,1.051263885498047
55359,0.7478448486328125,8.607999572753906,0.7322772216796876
55425,0.4528083801269531,9.476044464111329,1.1514056396484376
55492,0.4082011413574219,9.516759796142578,2.24892333984375
55559,-0.07439529418945313,8.060288543701173,1.5700849914550783
55625,-0.4728666687011719,9.354796600341798,1.6334033203125
55692,-0.5312452697753907,9.679621124267578,1.3690530395507814
55759,-0.22408401489257815,8.75469451904297,1.8823356628417969
55825,0.13681549072265625,11.391012268066406,1.29091552734375
55892,-0.5595364379882812,10.63822769165039,2.216440887451172
55959,-0.36209701538085937,11.264824676513673,2.847977600097656
56025,-0.36015106201171876,10.206525421142578,2.6662554931640625
56092,0.44562332153320316,8.180338897705079,1.0041119384765627
56159,-0.8545729064941406,9.37365737915039,0.060923309326171876
56225,1.4940431213378906,9.133406982421876,-0.6756948852539063
56292,-0.9313632202148437,8.573571166992188,1.3967454528808594
56359,1.3784834289550782,9.241482238769532,1.095721435546875
56425,-0.11421249389648438,8.827143859863282,2.746937713623047
56492,0.7521858215332031,8.637338562011719,1.53520751953125
56559,0.4830455017089844,9.323212280273438,1.2159214782714844
56625,-0.2369572448730469,9.939929809570312,1.826202392578125
56692,-0.7453001403808595,9.981243896484376,1.2954061889648438
56759,0.47571075439453125,10.782976684570313,0.7050338745117188
56825,0.5560935974121094,10.843301239013673,1.7030085754394533
56892,-0.4056564331054688,9.761051788330079,0.5716612243652344
56959,-0.44607238769531254,9.042845306396485,0.17558486938476564
57025,0.8355624389648438,9.2783056640625,1.061143341064453
57092,-0.0425115966796875,9.340875549316406,1.304237823486328
57159,-0.0544866943359375,9.495054931640626,1.6061599731445313
57225,0.24504043579101564,9.144334259033204,1.2475057983398439
57292,0.5272036743164062,9.31378189086914,0.9880952453613282
57359,0.3746708679199219,9.198371887207031,1.1787986755371094
57425,-0.23052062988281252,9.297615509033204,1.5702346801757814
57492,0.6080355834960938,8.31835189819336,1.5431410217285157
57558,0.16241226196289063,9.714947662353516,1.5033238220214844
57625,0.5150788879394531,8.991202697753907,1.2713063049316407
57692,0.29907806396484377,10.132579193115236,1.7792001342773438
57759,-0.09325607299804688,9.10436737060547,2.3643333435058596
57825,0.14684463500976563,9.692194976806642,2.0863613891601562
57892,0.33440460205078126,10.313552856445312,1.7648300170898439
57959,0.6258485412597656,8.427325286865235,0.8220904541015626
58025,-0.111368408203125,10.067913665771485,1.4079721069335938
58092,-0.5475613403320313,9.374405822753907,1.251098327636719
58159,0.5236111450195313,9.344767456054688,0.9776170349121094
58225,0.6328839111328125,9.511371002197267,2.2555096435546877
58292,0.7048841857910156,9.927206268310547,0.93166259765625
58358,-0.2712359619140625,10.81351318359375,2.178270263671875
58425,0.33605117797851564,10.593470764160157,1.6878900146484377
58492,0.5848338317871095,10.48973648071289,0.8761280822753906
58559,0.8640032958984375,9.056616668701173,0.5349874877929688
58625,-0.26000930786132814,9.581275634765625,0.8312214660644531
58692,0.41852966308593753,9.728120269775392,0.8599617004394532
58759,0.4025129699707031,10.357860717773438,1.4054273986816408
58825,1.0398875427246095,9.052425384521484,1.0050100708007812
58892,0.2956352233886719,9.528734893798829,0.8015830993652344
58959,-0.06376739501953126,9.162895660400391,0.5578898620605469
59025,0.4369413757324219,9.292526092529297,1.146016845703125
59092,0.8427474975585938,9.999954986572266,1.3572276306152344
59159,0.417930908203125,11.09612548828125,2.2007235717773437
59225,0.5993536376953126,10.181826782226564,1.5328125000000001
59292,0.276624755859375,8.516390075683594,1.086291046142578
59359,0.22513183593750002,8.807983703613282,0.19294876098632813
59425,0.6276448059082032,9.322912902832032,1.0449769592285156
59492,1.2228071594238281,10.521470489501954,1.4793736267089845
59559,0.3219804382324219,10.151739349365235,2.0450473022460938
59625,0.40490798950195317,10.044262847900391,2.0288809204101566
59692,0.5159770202636719,8.472980346679687,1.3165122985839846
59759,0.8595126342773438,9.732161865234376,1.1198213195800781
59825,0.6722520446777344,9.859996032714845,1.2986993408203125
59892,0.14519805908203126,10.644963684082033,1.867965545654297
59959,0.9342073059082032,9.792636108398439,1.7800982666015626
60025,0.05403762817382813,10.096504211425781,1.033301239013672
60092,0.4689747619628907,10.03228775024414,1.1520043945312501
60159,0.8671467590332032,9.39221878051758,1.272803192138672
60225,0.06870712280273437,10.569969635009766,1.2808863830566406
60292,0.6773414611816406,10.03752685546875,1.3720468139648438
60359,0.5604345703125,8.511001281738281,1.1731105041503906
60425,0.7153623962402345,10.209070129394531,1.0243199157714844
60492,0.6550378417968751,9.366622009277345,1.684746551513672
60559,-0.40954833984375,10.308463439941407,1.7066011047363283
60625,0.33410522460937503,9.762848052978516,1.2012519836425781
60692,0.9466314697265625,8.453071746826172,1.2539424133300783
60759,0.39158569335937504,9.242230682373048,1.422342224121094
60825,0.26420059204101565,10.294542388916016,1.0960208129882814
60891,0.48094985961914066,9.556427307128907,1.0433303833007812
60959,0.44023452758789067,9.5417578125,2.2185365295410158
61025,0.36643798828125,9.473799133300782,1.0919792175292968
61092,0.7036866760253907,9.842781829833985,0.9163943481445312
61159,-0.18037490844726564,10.326276397705078,1.2937596130371094
61225,0.31150222778320313,9.154812469482422,1.6754658508300782
61292,0.30551467895507817,9.806108093261718,1.209335174560547
61359,0.8045768737792969,9.663305053710937,1.0505154418945313
61425,0.37018020629882814,9.344767456054688,1.3618679809570313
61492,-0.4740641784667969,10.156529388427735,1.6450790405273439
61559,-0.07514373779296875,8.995393981933594,0.4532574462890625
61625,-0.3023712158203125,8.876690826416016,1.1451187133789062
61692,0.8289761352539063,8.755293273925782,0.5156776428222657
61759,-0.5774990844726563,9.120084686279297,1.2168196105957032
61825,2.1284239196777346,10.670410766601563,0.16435821533203127
61892,1.0602452087402345,11.99380874633789,1.7751585388183595
61959,0.7614665222167969,11.619886322021484,2.5993446350097655
62025,-0.5069956970214844,10.690319366455078,3.3081207275390625
62092,-2.541265411376953,12.175530853271486,1.0108479309082032
62159,-0.5246589660644532,9.533824310302736,1.5536192321777345
62225,0.8086184692382813,9.664053497314454,-0.2411485290527344
62292,4.824766845703126,8.928333435058594,-1.8525476074218752
62359,-1.1404783630371094,9.381291503906251,3.5087036132812504
62425,-3.589685211181641,13.120515747070312,3.49912353515625
62492,-2.0809725952148437,9.040450286865235,1.4946418762207032
62559,3.8208045959472656,9.057814178466797,-0.4596940612792969
62625,4.014801177978516,9.990225219726563,-1.1988569641113282
62692,-0.5300477600097656,11.575428771972657,-0.2966830444335938
62759,-0.4888833618164063,11.472293243408204,3.313659210205078
62825,-2.494263153076172,8.759783935546876,2.4409739685058596
62892,3.1726524353027346,9.285939788818359,-0.8925938415527345
62959,2.1044737243652345,7.091503143310547,-2.983745269775391
63025,-0.9403445434570313,13.02217025756836,3.227438507080078
63092,2.1092637634277347,10.551707611083986,1.4437477111816408
63159,-0.8187973022460938,9.508077850341797,2.6794281005859375
63225,3.698957977294922,7.514673156738282,-1.3859678649902345
63292,-0.045505371093750004,8.835077362060547,-2.6707461547851565
63359,-1.2910652160644531,8.898395690917969,0.49067962646484375
63425,-2.5200096130371095,9.054221649169921,1.3642630004882814
63492,-0.13007949829101564,10.09740234375,-0.24638763427734375
63558,2.4604335021972656,9.761201477050781,-0.9798623657226563
63625,-0.5285508728027344,10.202483825683593,2.684517517089844
63692,-1.0740165710449219,9.766290893554688,-0.06661148071289062
63759,-0.7047344970703125,11.778855743408204,-0.030386810302734376
63825,-0.09250762939453125,11.570189666748048,2.0166064453125
63892,3.1928604125976565,9.714348907470704,-1.4952406311035158
63959,-1.0840457153320313,8.952433319091798,0.5643264770507813
64025,-2.2050645446777346,8.603059844970703,0.4278103637695313
64092,0.290994873046875,13.891262969970704,1.580563201904297
64158,-1.4663507080078126,6.651567993164063,2.4604335021972656
64225,2.840642852783203,8.349636840820313,0.22064117431640626
64292,2.5210574340820315,10.947334899902344,0.056133270263671875
64359,-0.8187973022460938,11.780502319335938,1.1970606994628907
64425,-2.269430694580078,9.840237121582032,0.34323623657226565
64492,-0.5644761657714844,3.6528538513183597,2.8268714904785157
64559,1.4054273986816408,12.355307006835938,-1.1798464965820312
64625,1.910028076171875,9.65043182373047,-0.3153941345214844
64692,0.5818400573730469,6.523434448242188,1.06099365234375
64759,0.45699966430664063,9.203910369873048,0.37751495361328125
64825,-0.11555969238281251,8.531808013916017,-0.27572662353515626
64892,0.5754034423828125,11.079360351562501,-1.4590159606933595
64959,-0.1945953369140625,12.308304748535157,-0.7276368713378907
65025,-0.18681152343750002,10.816656646728516,0.18935623168945315
65092,-0.3673361206054688,10.853330383300781,-0.03592529296875
65159,0.9361532592773438,10.451715545654297,0.43724075317382816
65225,-0.5917195129394531,10.123148803710938,0.42032592773437505
65292,-0.5767506408691406,10.224188690185548,-0.39817199707031253
65359,0.5031037902832032,9.618548126220704,-0.29758117675781254
65425,0.5662724304199219,10.433902587890625,-0.5783972167968751
65492,0.38889129638671877,11.140882415771484,0.3279679870605469
65559,-0.5409750366210938,12.058923339843751,-1.8184185791015626
65625,-0.25222549438476566,11.799961853027344,-0.9066645812988282
65692,-0.7493417358398438,10.547067260742189,0.137713623046875
65759,0.18995498657226564,11.502081298828125,-0.07679031372070313
65825,-1.0737171936035157,11.413166198730469,-0.48873367309570315
65892,0.001945953369140625,10.039921875000001,-0.38290374755859374
65959,-0.5057981872558595,10.610086212158203,0.05119354248046875
66025,-0.23875350952148439,9.549092559814454,1.0193801879882813
66092,-0.028740234375,9.91972183227539,-0.053738250732421874
66159,-0.6288423156738282,8.6987109375,0.5683680725097656
66225,0.16570541381835938,10.089917907714844,1.5060182189941407
66292,0.24489074707031253,10.54137908935547,1.8964064025878906
66359,0.5298980712890625,10.925630035400392,1.547032928466797
66425,0.47615982055664063,8.589288482666015,1.9808308410644533
66492,0.7506889343261719,10.337652740478516,0.8406518554687501
66559,-0.001347198486328125,10.59362045288086,1.1358380126953125
66625,0.6879693603515625,8.941805419921875,1.2904664611816408
66692,0.5993536376953126,9.446855163574218,2.1463865661621093
66759,0.7674540710449219,8.496481475830079,1.5239808654785156
66825,1.3858181762695314,8.565787353515626,2.715652770996094
66892,0.7032376098632813,8.773255920410156,1.7167799377441406
66959,0.1323248291015625,9.745184783935548,2.53632568359375
67025,0.007933502197265626,9.42634780883789,2.3504122924804687
67092,0.5486091613769531,9.435478820800782,2.3306533813476564
67159,0.06451583862304688,9.953102416992188,2.292183380126953
67225,0.5369334411621094,9.410031738281251,2.1743783569335937
67292,-0.26225463867187504,9.569899291992188,1.8862275695800783
67359,-0.16256195068359375,9.305998077392578,2.2601499938964844
67425,0.47571075439453125,9.12113250732422,1.6151412963867189
67492,-0.4923262023925781,9.754166107177735,1.8851797485351562
67559,0.2363584899902344,10.001002807617189,1.858385467529297
67625,0.049097900390625004,10.401420135498048,1.7307009887695313
67692,-0.25836273193359377,10.5045556640625,1.4241384887695314
67759,-0.18426681518554688,9.122030639648438,1.9546353149414064
67825,0.09415420532226564,8.910670166015626,1.4882052612304688
67892,-0.42167312622070313,9.577533416748047,0.9868977355957032
67959,-0.26000930786132814,9.742340698242188,1.1755055236816407
68025,0.05882766723632813,9.585616607666017,1.8387762451171876
68092,1.1273057556152344,9.882599029541016,1.7055532836914062
68159,-0.21061203002929688,9.645941162109375,1.6561560058593752
68225,0.21330642700195312,10.125394134521486,1.6807049560546876
68292,0.6758445739746094,9.65761688232422,1.7251625061035156
68359,0.13995895385742188,8.919352111816407,1.4509327697753907
68425,0.051043853759765626,8.992100830078126,1.6720230102539064
68492,0.28261230468750004,10.199040985107422,1.7197737121582033
68559,-0.05478607177734375,10.84315155029297,1.9199075317382814
68625,0.1389111328125,9.88424560546875,1.509910125732422
68692,0.3608995056152344,8.922196197509766,1.2745994567871095
68759,-0.17333953857421877,9.314979400634765,0.9577084350585938
68825,0.4727169799804688,9.478589172363282,1.2793894958496095
68892,-0.2213896179199219,10.51458480834961,1.4901512145996094
68959,0.0520916748046875,9.658215637207032,1.0912307739257814
69025,0.16720230102539063,9.081914062500001,0.7882608032226562
69092,0.3028202819824219,9.887239379882812,1.1343411254882814
69159,0.8195457458496094,9.794282684326172,1.3382171630859376
69225,-0.07080276489257813,9.169182586669923,1.61663818359375
69292,-0.02065704345703125,10.158625030517578,1.3051359558105469
69359,-0.37661682128906254,9.79847396850586,1.191372528076172
69425,0.38889129638671877,9.348809051513673,1.1012599182128906
69492,0.4343966674804688,9.68111801147461,1.0162367248535156
69559,-0.02365081787109375,9.90624984741211,1.67890869140625
69625,0.4387376403808594,9.552685089111328,0.8795709228515626
69692,-0.48109954833984375,9.155111846923829,1.0520123291015626
69759,0.18202148437500001,10.186766510009766,0.7899073791503907
69825,0.15822097778320313,9.824968872070313,1.362466735839844
69892,0.28889923095703124,9.395062866210939,1.919608154296875
69959,-0.259859619140625,10.181377716064453,1.1117381286621095
70025,-0.6846762084960938,9.570348358154297,0.23501129150390626
70092,0.011526031494140625,9.773625640869142,0.44607238769531254
70159,-0.3926335144042969,10.120903472900391,0.8779243469238281
70225,-0.02963836669921875,9.924362182617188,1.004860382080078
70292,0.24743545532226563,10.276579742431641,0.9026229858398438
70359,-0.7557783508300782,9.876312103271484,0.24459136962890626
70425,0.03143463134765625,9.144483947753907,0.4908293151855469
70492,-0.13576766967773438,10.895542602539063,0.5760021972656251
70559,-0.4477189636230469,9.330247650146484,0.849034423828125
70625,0.1926493835449219,9.362430725097656,-0.11166778564453125
70692,-0.4471202087402344,9.930050354003907,-0.7800279235839844
70759,-0.15896942138671877,10.027647399902344,-0.1874102783203125
70825,-0.23605911254882814,10.094707946777344,-0.18037490844726564
70892,-0.4496649169921875,9.083560638427734,-0.7331753540039063
70959,-0.047151947021484376,9.414223022460938,-0.7336244201660157
71025,-0.28156448364257813,9.616302795410157,1.0374925231933594
71092,-0.3373983764648438,10.191107482910157,0.8743318176269532
71159,-0.269439697265625,10.086026000976563,0.3878434753417969
71225,-0.03203338623046875,10.065967712402344,-0.5661227416992187
71292,-0.3489244079589844,10.050699462890625,1.0587483215332032
71359,-0.026195526123046875,10.164462890625,-0.1974394226074219
71425,0.23007156372070314,9.009764099121094,0.8810678100585938
71492,0.006735992431640626,9.436077575683594,-0.2775228881835938
71559,-0.3008743286132813,9.595496063232423,0.3243754577636719
71625,0.17812957763671877,9.194330291748047,0.5028044128417969
71692,-0.15238311767578125,9.99636245727539,-0.0305364990234375
71759,-0.44921585083007814,10.108329620361328,0.9729766845703125
71825,-0.20073257446289064,9.725126495361328,0.5809419250488281
71892,0.06990463256835938,9.64324676513672,-0.8562194824218751
71959,-0.18291961669921875,10.156828765869141,-0.34757720947265625
72025,0.2582130432128906,8.747659149169923,0.7584727478027344
72092,-0.36793487548828124,10.140363006591798,-0.1836680603027344
72159,0.10747650146484375,10.054291992187501,-0.04296066284179688
72225,-0.43230102539062504,9.69069808959961,0.7801776123046875
72292,-0.7741900634765625,9.559870147705078,0.667012939453125
72359,-0.7646099853515625,9.984686737060548,0.10343490600585938
72425,-0.9922865295410157,9.866282958984376,0.021106109619140626
72492,0.0449066162109375,9.095835113525391,0.4213737487792969
72559,-0.6195616149902344,9.022188262939453,0.3914360046386719
72625,-0.012723541259765625,10.072104949951173,0.5120851135253907
72692,-0.79275146484375,10.898686065673829,-0.542471923828125
72759,0.07619155883789062,9.876761169433594,-0.8872050476074219
72825,-0.269439697265625,10.205776977539063,0.6807843017578126
72892,-0.0652642822265625,10.039323120117189,0.7351213073730469
72959,-0.005538482666015625,10.389744415283204,0.5445675659179687
73025,-0.09954299926757813,9.035061492919922,-0.19669097900390625
73092,0.014220428466796876,8.68239486694336,0.07170089721679689
73159,-0.06032455444335938,10.134225769042969,-0.4800517272949219
73225,-0.7265890502929688,10.779683532714845,-0.5602848815917969
73292,-0.15597564697265626,10.80528030395508,-0.12349319458007812
73358,0.17528549194335938,9.783804473876954,0.24563919067382814
73425,-0.28186386108398437,10.217003631591798,-0.7560777282714845
73492,-0.5798941040039063,9.597442016601564,0.38155654907226566
73559,0.016914825439453125,9.965077514648438,0.1251397705078125
73625,-0.09370513916015626,9.40479263305664,0.3411405944824219
73692,-0.5222639465332032,9.568701782226563,-0.22558090209960938
73759,0.47615982055664063,9.947863311767579,-0.32063323974609376
73825,-0.2183958435058594,9.385482788085938,0.9286688232421876
73892,-0.1778302001953125,10.519524536132813,0.7782316589355469
73959,0.11600875854492188,8.874295806884765,1.1311976623535156
74025,0.16600479125976564,9.797426147460937,1.4988331604003906
74092,-0.24264541625976563,8.87160140991211,0.5704637145996094
74159,-0.1874102783203125,10.223739624023438,0.6724017333984376
74225,-0.23845413208007812,10.521470489501954,0.7870632934570313
74292,0.1945953369140625,9.600735168457032,0.7505392456054688
74359,-0.4740641784667969,9.278605041503907,0.2603086853027344
74425,0.24459136962890626,9.373358001708985,0.058677978515625
74492,-0.60114990234375,10.897937622070312,0.6378236389160157
74559,-0.5068460083007813,10.54961196899414,1.184337158203125
74625,0.501756591796875,11.006162567138672,1.0121951293945313
74692,0.7418572998046875,9.126670989990235,0.850082244873047
74759,0.1872605895996094,9.567055206298829,0.1682501220703125
74825,-0.5267546081542969,11.028316497802734,1.2494517517089845
74892,0.980760498046875,12.519814910888673,1.6958235168457032
74959,-0.7535330200195313,10.905422058105469,1.1796968078613281
75025,-0.36164794921875004,8.875493316650392,1.3430072021484376
75092,0.5659730529785156,8.13483352661133,-0.18755996704101563
75159,-0.8363108825683594,9.67303482055664,0.8572673034667969
75225,-0.23052062988281252,10.862611083984376,1.7886305236816407
75292,0.6960525512695312,8.826245727539064,1.0434800720214845
75359,-0.45565246582031255,8.962462463378907,1.6275654602050782
75425,-0.36778518676757815,8.141719207763673,0.641865234375
75492,-0.866847381591797,7.393275604248047,0.8384065246582032
75559,-0.8792715454101563,10.908415832519532,0.6968009948730469
75625,2.005828857421875,8.758436737060547,0.33006362915039067
75692,-0.9951306152343751,10.799442443847656,0.14654525756835937
75759,-0.32482452392578126,9.671388244628906,1.4876065063476562
75825,-0.6334826660156251,9.048683166503906,1.673968963623047
75892,-0.41029678344726567,10.805130615234376,-0.32213012695312504
75959,0.06391708374023437,8.564290466308595,0.3614982604980469
76025,1.3534854125976563,9.105115814208984,0.08083190917968751
76092,-0.5011578369140626,9.630223846435547,0.5918692016601563
76159,-0.6075865173339844,8.685837707519532,1.6527131652832032
76225,0.20582199096679688,9.844877471923828,0.978215789794922
76292,0.36179763793945313,9.046138458251953,1.1204200744628907
76359,-0.12558883666992188,9.67917205810547,0.8696914672851563
76425,-0.42960662841796876,9.552685089111328,1.0671308898925782
76492,0.6092330932617188,10.008038177490235,1.6444802856445313
76559,0.6161187744140625,9.538614349365234,1.0337503051757813
76625,0.06152206420898438,9.5178076171875,1.21427490234375
76692,0.6168672180175782,9.54070999145508,1.4365626525878907
76759,0.006586303710937501,9.979447631835939,1.3190570068359375
76825,-0.42526565551757817,9.908944244384767,0.42152343750000004
76892,0.028291168212890627,10.739267578125,2.6069787597656253
76959,1.1036549377441407,9.189540252685548,1.881138153076172
77025,-0.48693740844726563,8.567433929443359,2.182910614013672
77092,0.15133529663085937,9.488618316650392,1.7283059692382814
77159,-0.046702880859375004,9.926158447265626,1.2744497680664064
77225,0.010777587890625,10.07240432739258,1.9522402954101563
77292,-0.29788055419921877,9.498348083496094,1.1642788696289064
77359,-0.10612930297851562,9.398655395507813,1.49688720703125
77425,0.6267466735839844,9.449848937988282,1.5643968200683596
77492,0.027542724609375003,10.014923858642579,2.4659719848632813
77559,-0.050295410156250005,9.210496673583984,2.389930114746094
77625,0.0161663818359375,9.304501190185547,2.633024597167969
77692,0.571212158203125,9.947414245605469,2.4435186767578125
77759,-0.015417938232421876,9.053173828125,2.033221893310547
77825,0.36673736572265625,8.87489456176758,2.514471130371094
77892,1.3076806640625,9.8483203125,1.8372793579101563
77959,0.7153623962402345,11.08025848388672,2.596201171875
78025,0.2974314880371094,10.593021697998047,2.5030947875976564
78092,-0.011675720214843751,10.278226318359376,2.0457957458496097
78159,-0.042810974121093755,9.810898132324219,1.4114149475097657
78225,0.24384292602539065,9.348958740234375,1.5862513732910157
78292,0.5517526245117188,8.235274658203126,1.8482066345214845
78359,0.02484832763671875,10.0351318359375,0.8846603393554688
78425,0.18142272949218752,9.008865966796876,1.1404783630371094
78492,0.7506889343261719,9.26348648071289,1.5597564697265627
78559,0.33320709228515627,9.5944482421875,1.3166619873046876
78625,0.0007484436035156251,9.920919342041016,0.8286767578125
78692,-0.17498611450195314,9.901310119628906,1.1030561828613281
78759,0.23980133056640626,10.197244720458984,1.5105088806152345
78825,0.13022918701171876,9.439969482421876,2.655926971435547
78892,-0.12005035400390626,9.698481903076173,2.423610076904297
78959,0.5792953491210938,9.275461578369141,1.877545623779297
79025,1.0484197998046876,9.91582992553711,1.5013778686523438
79092,0.2667453002929688,9.916877746582031,1.9805314636230469
79159,-0.07289840698242188,9.997709655761719,1.8922151184082032
79225,0.32287857055664065,9.856403503417969,1.7551002502441406
79292,-0.018411712646484377,9.728868713378906,2.225871276855469
79359,0.036074981689453126,9.73904754638672,1.0374925231933594
79425,0.2640509033203125,9.256900177001954,1.1883787536621095
79492,0.22977218627929688,10.066566467285156,1.6266673278808594
79559,0.2285746765136719,9.633666687011718,1.1114387512207031
79625,0.5715115356445313,9.854158172607422,1.2677137756347656
79692,0.1830693054199219,9.903106384277343,1.8489550781250002
79759,0.04999603271484375,10.256820831298828,1.9199075317382814
79825,0.06676116943359375,10.109976196289063,1.83697998046875
79893,-0.2847079467773438,9.933642883300783,1.8422190856933596
79959,0.4113446044921875,9.550439758300781,1.2699591064453126
80025,-0.40670425415039063,9.62992446899414,0.97477294921875
80092,0.22588027954101564,10.018516387939453,1.2015513610839845
80159,0.20133132934570314,9.18968994140625,0.9228309631347656
80225,-0.367635498046875,9.466913452148438,0.9720785522460939
80292,-0.04939727783203125,9.568103027343751,1.4169534301757813
80359,0.35521133422851564,9.897867279052734,0.8901988220214844
80425,-0.2591111755371094,9.39655975341797,1.1033555603027345
80492,-0.2839595031738281,9.808353424072266,1.2783416748046876
80559,0.2585124206542969,9.758357391357423,1.3415103149414063
80625,-0.24923171997070315,9.432784423828126,1.2210108947753906
80692,-0.24054977416992188,9.635163574218751,1.0719209289550782
80759,0.04939727783203125,9.570498046875,1.2515473937988282
80825,0.07274871826171875,9.70551727294922,1.349294128417969
80892,-0.001945953369140625,9.93020004272461,0.5550457763671875
80959,0.446671142578125,9.733059997558595,0.32257919311523436
81025,-0.058977355957031255,10.076146545410158,0.602347412109375
81092,-0.0748443603515625,9.52020263671875,0.779578857421875
81159,0.07574249267578126,9.99920654296875,0.09011260986328125
81225,0.007933502197265626,9.33952835083008,1.0157876586914063
81292,-0.0568817138671875,10.091714172363282,0.6915618896484376
81359,-0.13801300048828125,10.43839324951172,-0.000149688720703125
81425,-0.3591032409667969,10.195598144531251,-0.08801696777343751
81492,-0.5803431701660157,9.90430389404297,-0.2089654541015625
81559,-0.3770658874511719,8.192014617919922,0.6153703308105469
81625,-0.08247848510742188,10.842103729248047,-0.6867718505859375
81693,-0.2594105529785156,8.748706970214844,-0.018411712646484377
81759,-0.5417234802246094,10.106982421875001,-0.7283853149414062
81825,-0.3725752258300781,9.384285278320313,0.7620652770996094
81892,-0.9205856323242188,10.130333862304688,-0.6562353515625
81959,-0.034129028320312504,9.849966888427735,-1.0985655212402343
82025,-0.4773573303222656,11.108399963378908,-1.3213023376464845
82092,-0.15642471313476564,10.32298324584961,-1.2690609741210939
82159,0.2884501647949219,10.880274353027344,-1.4250366210937502
82225,-0.4140390014648438,9.699679412841798,-1.1683204650878907
82292,-0.23785537719726563,9.037007446289063,1.8747015380859375
82359,-0.271834716796875,10.712473297119141,-1.0797047424316406
82425,-1.1702664184570313,10.202184448242187,-0.36404296875000003
82493,1.423689422607422,9.868079223632813,0.6445596313476563
82559,-0.36134857177734375,9.35928726196289,-0.5713618469238282
82625,-0.559237060546875,8.987909545898438,1.5232324218750002
82693,0.06331832885742188,11.291169891357422,0.3050656127929688
82759,-0.28889923095703124,8.925639038085938,1.1120375061035157
82825,0.05313949584960938,9.274713134765625,-0.7432044982910156
82892,-0.6453080749511719,10.564131774902345,0.30222152709960937
82959,-0.0209564208984375,10.14575180053711,0.08367599487304687
83025,-0.07903564453125,10.10788055419922,0.3207829284667969
83092,0.23037094116210938,9.870623931884767,0.7203021240234375
83159,-0.0401165771484375,10.139764251708986,0.2677931213378906
83225,-0.13367202758789062,10.510992279052735,0.7894583129882813
83292,-0.13726455688476563,9.52783676147461,1.4295272827148438
83359,-0.3106040954589844,10.537786560058594,1.1171269226074219
83425,-0.1327738952636719,9.691745910644531,1.0044113159179688
83492,-0.06975494384765625,10.366842041015625,1.018032989501953
83559,0.2173480224609375,9.74144256591797,0.9551637268066406
83625,-0.10373428344726562,9.573791198730468,1.1639794921875
83692,0.12708572387695313,9.844578094482422,1.4340179443359375
83759,0.0389190673828125,8.989107055664062,1.6989669799804688
83825,-0.3649411010742188,9.773625640869142,1.7595909118652344
83892,0.23231689453125,9.12831756591797,1.4359638977050782
83959,0.2436932373046875,9.570348358154297,1.3882131958007813
84025,-0.30446685791015626,9.835596771240235,1.1725117492675783
84092,-0.02844085693359375,9.538314971923828,0.880169677734375
84159,0.722098388671875,9.370214538574219,1.0268646240234376
84225,-0.03667373657226563,9.845027160644532,1.8161732482910158
84292,0.7041357421875001,10.77564193725586,1.5377522277832032
84359,-0.5234614562988281,9.501042480468751,-0.0221539306640625
84425,-0.012573852539062501,9.777068481445314,0.10148895263671875
84492,0.10433303833007813,11.32260452270508,0.36164794921875004
84559,-0.24938140869140626,9.702972564697266,0.19115249633789064
84625,-0.032931518554687504,10.254425811767579,0.25267456054687504
84692,-0.5357359313964845,9.037905578613282,-0.619112548828125
84759,0.17872833251953127,9.311087493896485,-1.6582516479492189
84825,0.5611830139160157,10.56293426513672,-0.20193008422851563
84892,-1.1831396484375,11.697425079345704,1.0491682434082032
84959,-0.17169296264648437,10.687475280761719,-0.8183482360839844
85025,-0.9011260986328126,9.304351501464843,-0.6662644958496095
85092,-0.4293072509765625,8.649463348388672,-0.4866380310058594
85159,-0.4090992736816406,10.840906219482422,-0.4824467468261719
85225,1.3343252563476564,10.415041809082032,-0.6568341064453125
85292,-0.00209564208984375,10.01971389770508,-1.705104217529297
85359,0.8942404174804688,11.063193969726562,-2.858156433105469
85425,-0.5402265930175781,9.24717041015625,-0.22558090209960938
85492,-0.06735992431640625,9.124275970458985,-0.7864645385742188
85559,-0.6432124328613281,9.733059997558595,-0.5502557373046876
85625,-0.7994874572753906,8.922046508789062,-0.1335223388671875
85692,-0.7747888183593751,7.600893859863282,0.047601013183593756
85759,-0.12528945922851564,10.463990020751954,-1.2472064208984375
85825,-0.24025039672851564,10.027198333740236,-0.6643185424804687
85892,0.3016227722167969,9.366023254394532,-1.0740165710449219
85959,0.21270767211914063,9.940079498291016,-1.069525909423828
86026,0.239501953125,10.523117065429688,-0.39892044067382815
86092,-0.4058061218261719,10.658735046386719,-0.5897735595703125
86159,-0.3375480651855469,8.750952301025391,-1.6304095458984376
86225,1.9116746520996095,9.571695556640625,-0.2667453002929688
86292,0.26105712890625,10.080786895751954,-0.13097763061523438
86359,0.13786331176757813,9.627379760742189,-0.40730300903320316
86425,-0.7653584289550782,9.783804473876954,-0.3384461975097656
86492,0.06900650024414062,9.992320861816406,-0.24563919067382814
86559,-0.21480331420898438,9.298813018798828,-1.1681707763671876
86625,0.37631744384765625,8.731642456054688,-1.3180091857910157
86692,-0.5845344543457032,10.102042694091798,-0.8096662902832031
86759,-0.711171112060547,9.423054656982423,-0.2381547546386719
86825,0.23486160278320314,9.189240875244142,-0.7964936828613282
86892,-0.047451324462890625,11.083252258300782,-0.3495231628417969
86959,-0.540076904296875,10.439291381835938,-0.5659730529785156
87026,-0.6008505249023438,9.77691879272461,-0.850082244873047
87092,-0.0724493408203125,9.500743103027345,-0.8542735290527345
87159,-0.1574725341796875,9.59878921508789,-0.8834628295898438
87225,0.19414627075195315,8.658594360351563,-0.6460565185546875
87292,0.4650828552246094,9.353299713134765,-0.8936416625976563
87359,-0.05673202514648438,9.374405822753907,-0.5430706787109375
87425,0.009131011962890626,9.400002593994142,-0.6282435607910156
87492,-0.4890330505371094,9.529034271240235,-0.5718109130859376
87559,-0.20851638793945312,10.336754608154298,-0.7366181945800782
87625,-0.33185989379882813,10.612481231689454,-0.37137771606445313
87692,-0.1770817565917969,10.148895263671875,-1.2361294555664064
87759,-0.6008505249023438,9.066795501708985,-0.79754150390625
87825,-0.030087432861328128,9.207053833007812,-0.6833290100097656
87892,1.4783258056640625,8.871002655029297,0.7635621643066407
87959,-0.4058061218261719,10.882220306396485,1.397493896484375
88025,-0.4236190795898438,8.993897094726563,1.5320640563964845
88092,0.29533584594726564,9.026678924560548,1.0353968811035157
88159,-0.24129821777343752,8.485404510498046,0.36793487548828124
88225,1.0659333801269533,9.80805404663086,1.7332456970214845
88292,-0.3426374816894531,8.716673583984376,2.3474185180664064
88359,-0.12020004272460938,9.577084350585938,2.488574981689453
88425,1.1798464965820312,9.904004516601564,0.2963836669921875
88492,0.20462448120117188,9.007818145751953,0.4454736328125
88559,-0.28874954223632815,8.617429962158203,0.7523355102539063
88625,-0.30895751953125,10.051148529052735,1.8074913024902344
88692,1.2582833862304688,10.604398040771486,1.6545094299316407
88759,-0.11705657958984375,9.625433807373048,0.8448431396484375
88825,0.5108876037597656,8.233478393554687,0.38095779418945314
88892,-0.08592132568359376,10.571316833496095,1.7797988891601564
88959,-0.022602996826171878,10.722203063964844,1.851200408935547
89025,-0.17932708740234377,12.379556579589844,1.8351837158203126
89092,-0.36853363037109377,11.563753051757812,1.0515632629394531
89159,0.19489471435546876,11.011850738525391,0.7006929016113281
89225,-0.5251080322265625,9.305998077392578,-0.41044647216796876
89292,0.8322692871093751,9.524693298339844,-0.15537689208984376
89359,0.7143145751953125,9.302854614257813,0.4860392761230469
89425,-0.354462890625,8.415499877929689,0.5783972167968751
89492,1.628463592529297,7.746990051269532,0.7542814636230469
89559,0.21465362548828126,9.058712310791016,0.8842112731933595
89625,-0.5763015747070312,9.478140106201172,1.595232696533203
89692,0.3730242919921875,10.039921875000001,1.3871653747558594
89759,-0.7008425903320313,9.55897201538086,1.0590476989746094
89825,-0.9949809265136719,9.094787292480468,1.5311659240722657
89892,-0.2820135498046875,9.174721069335938,1.2325369262695314
89959,-0.398770751953125,10.271190948486328,0.9520202636718751
90025,-0.11226654052734375,9.853409729003907,1.4055770874023439
90092,1.1572434997558594,9.93543914794922,-0.4954696655273438
90159,-0.8840615844726563,10.577005004882814,-0.18875747680664062
90225,0.03817062377929688,11.066038055419922,0.0061372375488281256
90292,-0.4776567077636719,10.671757965087892,0.49247589111328127
90359,-1.0156379699707032,11.311228179931641,-0.6134243774414063
90425,0.8333171081542969,8.722661132812501,-1.3311817932128907
90492,-0.46418472290039064,8.7035009765625,0.8791218566894532
90559,-0.8214916992187501,9.410780181884766,0.017962646484375
90625,-1.0871891784667969,8.652906188964844,-0.7039860534667969
90692,-0.19504440307617188,10.403815155029298,-0.9777667236328126
90759,-1.4081217956542968,11.542197875976562,2.543361053466797
90825,0.2662962341308594,11.763886871337892,3.000660095214844
90892,-0.9093589782714844,11.980486450195313,0.9515711975097657
90959,-0.11660751342773439,9.963131561279297,1.244062957763672
91025,-0.5176235961914063,10.043215026855469,0.9024732971191407
91092,-0.33485366821289064,8.435408477783204,0.3237767028808594
91159,-0.4147874450683594,9.871522064208985,1.7080979919433594
91225,-0.4087998962402344,11.351494445800782,0.8783734130859375
91292,-0.40161483764648437,8.232580261230469,-0.23935226440429688
91359,-1.0054591369628907,9.966724090576172,0.058528289794921876
91425,-0.38125717163085937,10.591973876953126,-0.29593460083007816
91492,0.5789959716796875,8.892408142089844,1.6127462768554688
91559,0.7279362487792969,9.050329742431641,0.9581575012207032
91625,-0.5505551147460938,11.57557846069336,1.188977508544922
91692,-0.8672964477539062,9.90819580078125,0.3237767028808594
91759,0.009580078125,9.777068481445314,0.28111541748046875
91825,0.8779243469238281,9.684261474609375,-0.6445596313476563
91892,-0.00868194580078125,10.422226867675782,1.1139834594726563
91959,0.7201524353027344,9.525591430664063,2.066303100585938
92025,0.21016296386718752,9.232051849365234,0.8487350463867188
92092,0.49517028808593755,10.255773010253908,0.3405418395996094
92159,0.4788542175292969,8.965605926513673,0.5739065551757813
92225,0.6050418090820313,11.082952880859375,0.9732760620117188
92292,0.8020321655273438,10.417436828613281,1.2891192626953125
92359,0.6950047302246094,9.545200653076172,0.7776329040527344
92425,0.38934036254882814,8.39259750366211,1.0421328735351563
92492,1.368753662109375,8.828640747070313,2.0345690917968753
92559,0.6569837951660157,11.200608215332032,1.639241180419922
92625,0.2962339782714844,10.588680725097657,1.565294952392578
92692,1.5745756530761719,10.192903747558594,1.44419677734375
92759,0.7610174560546875,10.396181030273437,1.2711566162109376
92825,0.20193008422851563,9.712253265380859,1.3311817932128907
92892,0.7006929016113281,10.410551147460938,2.0357666015625
92959,0.18576370239257814,11.183843078613283,2.2493724060058593
93026,-0.37272491455078127,10.20802230834961,3.3832644653320316
93092,1.0044113159179688,9.34386932373047,1.36037109375
93159,0.24459136962890626,8.155340881347657,0.7668553161621094
93225,0.14669494628906252,9.413624267578125,-0.5325924682617188
93292,0.42810974121093753,9.078471221923829,0.8451425170898438
93359,0.5671705627441407,8.117020568847657,0.6132746887207031
93425,-0.7063810729980469,7.110663299560548,1.4409036254882812
93492,0.40191421508789066,8.46684310913086,0.5128335571289063
93559,0.4339476013183594,8.92429183959961,1.2506492614746094
93625,-0.6580316162109375,12.026291198730469,0.4272116088867188
93692,0.8074209594726562,8.36535415649414,1.4124627685546876
93759,0.26719436645507816,8.178392944335938,0.8524772644042969
93825,0.871787109375,8.328231353759765,0.4954696655273438
93892,0.7849676513671875,9.448202362060547,1.4962884521484376
93959,0.6026467895507813,9.359586639404297,1.302740936279297
94026,0.37511993408203126,10.485694885253906,0.7426057434082032
94092,0.18157241821289063,9.374256134033203,0.62989013671875
94159,0.4082011413574219,9.832303619384765,0.4520599365234375
94225,0.1818717956542969,10.293045501708985,0.7450007629394532
94292,0.38170623779296875,9.607022094726563,0.7120692443847657
94359,-0.17453704833984376,10.408455505371094,0.47690826416015625
94425,0.07858657836914062,11.100316772460937,0.9776170349121094
94492,0.060474243164062504,10.506800994873048,0.4314028930664063
94559,0.4489164733886719,9.795779571533204,0.6966513061523438
94625,0.5144801330566406,10.008636932373047,0.7144642639160157
94692,1.4311738586425782,10.389894104003906,0.4920268249511719
94759,0.528101806640625,9.275760955810547,0.17992584228515626
94825,0.8469387817382813,12.186158752441408,0.6810836791992188
94892,0.17588424682617188,14.087804260253908,0.2731819152832031
94959,0.49367340087890627,6.460714874267579,-0.013172607421875001
95025,-0.683778076171875,8.18662582397461,0.5504054260253907
95092,-1.0687774658203126,9.438322906494141,-0.9888436889648438
95159,-0.7330256652832031,10.519674224853516,2.0173548889160156
95225,0.26614654541015625,6.464307403564454,0.8695417785644531
95292,-0.35700759887695316,10.982811126708985,-1.0356962585449219
95359,-0.21121078491210937,9.607022094726563,1.036893768310547
95425,-0.223934326171875,10.150691528320314,0.05059478759765625
95492,0.41912841796875,9.474996643066406,-0.47181884765625004
95559,0.2465373229980469,9.510921936035157,-0.4785548400878907
95625,0.08173004150390625,10.766959991455078,-0.04655319213867188
95692,0.4764591979980469,10.052196350097656,0.335302734375
95759,0.5240602111816407,9.286089477539063,-0.7764353942871094
95826,0.5818400573730469,10.028545532226563,-0.6842271423339844
95892,0.37901184082031253,10.151290283203126,-0.6997947692871094
95959,0.03188369750976563,10.115215301513672,0.5516029357910156
96026,0.32602203369140625,9.631121978759767,-0.199984130859375
96092,0.096998291015625,9.914782104492188,-0.16390914916992189
96159,0.10103988647460938,10.231822814941406,-0.7917036437988282
96225,-0.4314028930664063,9.824669494628907,0.901724853515625
96292,0.40805145263671877,8.668324127197266,0.08547225952148438
96359,0.15911911010742188,9.801916809082032,0.032183074951171876
96425,-0.16121475219726564,9.68830307006836,0.7204518127441406
96492,-0.7312294006347657,10.573861541748048,0.6245013427734375
96559,0.43260040283203127,10.439590759277344,-0.1359173583984375
96626,0.09654922485351564,9.49191146850586,-0.8343649291992188
96692,0.12169692993164063,9.276659088134766,-0.08322692871093751
96759,-0.10927276611328125,9.304052124023437,-0.03263214111328125
96825,-0.4602928161621094,10.050549774169923,0.2884501647949219
96892,0.28500732421875,10.319839782714844,-0.08816665649414063
96959,0.017812957763671877,8.275840301513671,0.9084608459472656
97026,0.4739144897460938,9.709109802246095,1.094673614501953
97092,-0.1454974365234375,9.006470947265626,0.9545649719238282
97159,1.5178436279296876,9.455088043212891,1.5711328125000001
97225,0.33769775390625,8.828790435791015,1.2543914794921875
97292,0.35281631469726565,9.009165344238282,0.7816744995117187
97359,-0.5343887329101563,10.713670806884766,0.6529421997070313
97425,0.13442047119140627,10.691067810058595,0.5161267089843751
97492,0.25267456054687504,9.539512481689453,1.0978170776367189
97559,0.7738906860351563,9.607920227050782,0.7430548095703126
97625,-0.49187713623046875,10.838960266113283,1.948348388671875
97692,-1.3051359558105469,10.522518310546875,0.5846841430664063
97759,-1.1523037719726563,10.280621337890626,0.743653564453125
97825,0.9168434143066406,6.495891723632813,0.8713380432128907
97892,-0.7791297912597657,9.60492645263672,0.057779846191406255
97959,-0.11840377807617188,10.136471099853516,0.3541635131835938
98026,-0.6209088134765626,9.962981872558593,1.0689271545410157
98092,-0.19773880004882813,10.840457153320314,-0.12948074340820312
98159,-0.8990304565429688,10.096653900146485,0.3514691162109375
98226,0.8666976928710938,10.990145874023439,0.15058685302734376
98292,-0.13457015991210938,10.610086212158203,-0.511336669921875
98359,-0.16899856567382812,10.122400360107422,-0.3158432006835938
98425,-0.7560777282714845,11.28967300415039,-0.2636018371582031
98492,-0.11256591796875001,8.706943817138672,0.25626708984375
98559,-0.5366340637207031,7.990533599853516,-1.0205776977539063
98625,-1.2798385620117188,8.371341705322266,0.013172607421875001
98692,0.5394781494140626,8.431217193603516,1.5694862365722657
98759,-0.14025833129882814,6.269113311767579,-0.06346801757812501
98825,-0.4938230895996094,6.195616149902344,-0.9430389404296875
98892,2.0601658630371094,8.655750274658203,0.8590635681152344
98959,-0.9395960998535157,10.592123565673829,0.8232879638671875
99026,1.2576846313476564,11.541748809814454,-0.8758287048339845
99092,-0.9123527526855469,10.982511749267578,-1.3227992248535156
99159,-0.28725265502929687,10.915451202392578,-0.5080435180664062
99225,-0.44876678466796877,10.695259094238281,1.2928614807128906
99292,-0.950673065185547,10.082882537841797,-0.8699908447265625
99359,-0.10463241577148438,7.555837554931641,0.6981481933593751
99426,1.7359400939941407,6.27300521850586,0.20148101806640625
99492,-0.6894662475585938,9.14223861694336,1.705104217529297
99559,1.2076885986328125,10.685978393554688,2.4698638916015625
99625,-0.43739044189453125,10.940299530029298,-0.29458740234375
99692,-0.041164398193359375,9.404193878173828,1.5367044067382813
99759,0.6662644958496095,9.931397552490235,-0.30491592407226564
99825,0.16450790405273438,10.111323394775392,-0.22363494873046877
99892,0.028590545654296876,9.580078125,2.7449917602539062
99959,1.0735675048828126,10.672805786132812,1.4844630432128907
100026,0.7740403747558594,10.398276672363282,0.6544390869140625
100092,0.30551467895507817,8.145760803222657,2.4707620239257815
100159,1.8324893188476563,10.564730529785157,1.0448272705078125
100225,-1.3813275146484376,13.00450698852539,3.627107391357422
100292,0.44876678466796877,11.959080963134767,3.4118550109863284
100359,0.20597167968750002,10.705437927246095,0.14879058837890627
100425,0.1011895751953125,6.165528717041016,0.6111790466308594
100492,3.8949005126953127,5.6450610351562505,-1.573677520751953
100559,-0.3728746032714844,9.662406921386719,1.665586395263672
100625,4.109853515625,8.98746047973633,5.4001702880859375
100692,-1.5826588439941407,13.007201385498048,2.8181895446777343
100759,-0.22647903442382813,10.26595184326172,-0.4808001708984375
100825,-0.13606704711914064,7.4414753723144536,-3.1686108398437502
100892,0.42227188110351566,9.622889099121094,2.398761749267578
100959,1.3909075927734376,10.226134643554689,1.3331277465820313
101025,-0.7152127075195313,11.260783081054688,0.9922865295410157
101092,1.0126441955566408,10.169103240966797,0.5249583435058593
101159,0.10298583984375001,10.250833282470703,-0.43065444946289066
101225,0.29458740234375,10.017468566894532,0.9261241149902344
101292,-0.14594650268554688,10.595267028808594,0.9846524047851563
101359,-0.16450790405273438,10.570418701171876,-1.9568806457519532
101425,-0.14415023803710938,9.104517059326172,-1.6992663574218752
101492,0.46373565673828127,9.017398223876954,1.2210108947753906
101559,1.278790740966797,11.00167190551758,0.6866221618652344
101625,-0.662073211669922,10.509645080566406,2.4411236572265627
101692,0.2389031982421875,8.687184906005859,0.8431965637207032
101759,0.14744338989257813,7.362439727783204,-0.6638694763183595
101825,-0.7168592834472657,8.202343139648438,-0.5478607177734375
101892,-0.70174072265625,6.347400512695313,0.1095721435546875
101959,0.8276289367675782,8.06687484741211,4.076622619628907
102026,-3.284320220947266,13.804293823242189,4.352199554443359
102092,1.5907420349121095,20.56124267578125,0.016914825439453125
102159,-3.6253111267089846,7.928712158203125,0.9277706909179688
102226,-1.3201048278808594,8.801098022460938,-1.1517050170898437
102292,-1.6471746826171876,11.803704071044923,4.11943359375
102359,-1.7910255432128908,11.922107849121094,2.287093963623047
102426,0.7285350036621094,14.123280487060548,-0.050295410156250005
102492,-0.2915936279296875,5.811215515136719,-0.8457412719726562
102559,-1.5042219543457032,8.132588195800782,-1.3552816772460938
102626,-1.0726693725585938,8.565637664794922,1.208287353515625
102692,0.1646575927734375,15.797548828125,1.8712586975097658
102759,0.4860392761230469,9.481732635498048,1.1701167297363282
102825,-0.17513580322265626,4.008514251708984,-0.5008584594726563
102892,0.20327728271484377,9.289232940673829,-0.3263214111328125
102959,-1.6498690795898439,13.64532440185547,2.8669880676269535
103026,1.6604969787597657,15.077396392822266,4.084107055664063
103092,-0.22123992919921875,8.127199401855469,-0.21330642700195312
103159,-0.5330415344238282,6.678062896728516,-0.7589218139648438
103225,3.600313110351563,5.993985443115235,1.2567864990234376
103292,-4.461322631835937,11.135493621826173,5.404810638427735
103359,1.6693286132812502,7.685018920898438,3.0325437927246095
103425,-1.7179774475097658,10.7153173828125,2.4324417114257812
103492,-0.4070036315917969,10.659184112548829,1.030906219482422
103559,-0.7393125915527344,8.117918701171876,1.5612533569335938
103626,2.2376966857910157,8.407566375732422,1.7944683837890625
103692,-0.13696517944335937,10.555000762939454,2.0434007263183593
103759,-0.20806732177734377,10.477012939453125,2.030826873779297
103825,-0.3501219177246094,10.466534729003907,1.5178436279296876
103892,0.7234455871582032,9.041348419189454,1.8384768676757814
103959,0.09714797973632813,10.074050903320312,2.0746856689453126
104025,0.83107177734375,9.739795989990235,2.0121157836914065
104092,0.29189300537109375,11.097921752929688,1.18074462890625
104159,-0.3445834350585938,9.856104125976563,0.9750723266601563
104226,0.7408094787597657,8.03334457397461,1.2699591064453126
104292,-0.59156982421875,8.970695343017578,1.2195140075683595
104359,-0.6815327453613281,9.58726318359375,1.6497193908691408
104425,-0.009430389404296876,11.160341949462891,1.9113752746582031
104492,-0.07424560546875,7.865393829345703,0.29114456176757814
104559,0.27737319946289063,8.832682342529298,2.156415710449219
104626,0.8590635681152344,9.59160415649414,0.8271798706054688
104692,0.06676116943359375,9.64609085083008,1.8845809936523439
104759,-0.1478924560546875,9.802665252685548,1.3283377075195313
104825,0.9767189025878906,8.721613311767578,1.8434165954589845
104892,-1.6476237487792968,5.345384216308594,0.15178436279296875
104959,5.8618103027343755,1.8187179565429688,2.399360504150391
105026,-2.6340724182128907,9.08281219482422,0.42227188110351566
105092,1.2626243591308595,11.24027572631836,4.982688446044922
105159,-0.061072998046875,16.983831939697268,1.7115408325195314
105225,-0.25881179809570315,9.157357177734376,1.0151889038085937
105292,0.47136978149414066,7.747588806152344,0.10029144287109376
105359,0.6319857788085937,9.713001708984375,2.0878582763671876
105426,-0.024399261474609375,13.334720306396486,3.9742355346679688
105492,0.4984634399414063,13.650862884521485,2.425705718994141
105559,0.6536906433105469,10.63957489013672,1.1967613220214843
105625,0.3303630065917969,7.248676300048828,0.10822494506835938
105692,1.3488450622558594,10.682535552978516,1.042881317138672
105759,-0.3335064697265625,9.764644317626953,1.0367440795898437
105826,-0.20432510375976565,8.506809997558594,2.202968902587891
105892,0.8834628295898438,6.757248229980469,-0.7066804504394532
105959,0.669407958984375,9.699380035400392,0.9636959838867188
106026,0.8449928283691407,10.36564453125,2.5939558410644534
106092,0.23800506591796877,12.174632720947267,0.18770965576171875
106159,2.1881497192382815,10.809022521972658,1.1620335388183594
106225,-0.38709503173828125,5.787115631103516,1.320703582763672
106292,1.152902526855469,9.338480529785157,2.091750183105469
106359,-1.0503657531738282,12.409194946289062,2.7393035888671875
106425,-0.3691323852539063,10.952124938964845,2.333796844482422
106492,0.03502716064453125,7.732470245361329,0.6423143005371094
106559,0.5583389282226563,8.351732482910156,1.671573944091797
106625,1.233285369873047,11.09702362060547,2.278861083984375
106692,1.3245954895019532,9.759255523681642,2.0010388183593752
106759,0.2682421875,10.55964111328125,1.4085708618164063
106825,0.10403366088867189,8.534502410888672,1.2472064208984375
106892,0.23501129150390626,10.4566552734375,1.5389497375488281
106959,0.07708969116210938,11.03864501953125,1.8294955444335939
107026,0.4602928161621094,10.333611145019532,2.527643737792969
107092,0.37197647094726566,8.92039993286133,1.5599061584472658
107159,0.748443603515625,9.896071014404297,1.2385244750976563
107226,-0.034129028320312504,9.499246215820312,1.0315049743652345
107293,-0.2369572448730469,10.260563049316406,2.302661590576172
107359,0.9476792907714844,8.930878143310547,1.5120057678222658
107426,1.1732601928710937,10.66352508544922,1.5012281799316407
107493,-0.14998809814453126,11.23593475341797,1.7191749572753907
107559,-0.7890092468261719,11.419004058837892,3.566333770751953
107626,0.051492919921875005,10.803633728027345,-0.39248382568359375
107693,1.0319540405273437,6.537056121826172,0.11466156005859375
107759,-0.465831298828125,10.167905731201172,1.5081138610839844
107826,0.2806663513183594,12.865595855712892,2.562072143554688
107893,0.6568341064453125,10.846594390869141,2.2275178527832034
107959,0.3674858093261719,8.568930816650392,1.004710693359375
108026,0.19369720458984377,9.081914062500001,1.8396743774414064
108093,1.23822509765625,8.79166763305664,0.5498066711425782
108159,-0.3469784545898438,7.873027954101563,-0.8376580810546875
108226,0.6448590087890625,8.164022827148438,1.4096186828613282
108293,-0.2746788024902344,11.580218811035158,2.150577850341797
108359,0.9102571105957031,11.88842788696289,1.931433563232422
108426,-0.013322296142578125,9.430838470458985,0.11241622924804688
108493,-0.11645782470703125,8.653504943847656,1.2648696899414062
108559,0.6533912658691406,9.55223602294922,1.0258168029785157
108626,0.22767654418945313,8.8184619140625,1.254840545654297
108693,-0.2697390747070313,8.776399383544922,2.249821472167969
108759,0.34787658691406254,9.561965789794922,1.9077827453613283
108826,0.04221221923828125,10.226284332275391,0.9949809265136719
108893,-0.35940261840820314,7.051536254882813,0.10223739624023438
108959,0.13681549072265625,6.700516204833985,0.21465362548828126
109026,0.7084767150878907,6.609655151367188,1.1524534606933594
109093,-0.046403503417968756,10.05084915161133,1.349443817138672
109159,-0.3740721130371094,7.850574645996094,1.4946418762207032
109226,0.5596861267089844,8.213869171142578,0.3894900512695313
109293,0.24863296508789065,9.591005401611328,-0.10807525634765626
109359,1.316063232421875,8.584947509765625,0.5933660888671876
109426,1.2168196105957032,10.181228027343751,0.0700543212890625
109493,0.36060012817382814,9.179511108398438,0.6869215393066407
109559,0.25462051391601564,10.925630035400392,3.3512310791015625
109626,-0.16854949951171877,14.698833618164063,1.9010467529296875
109693,-0.5035528564453126,8.192313995361328,1.776805114746094
109759,0.37272491455078127,7.90640853881836,2.242037658691406
109826,0.604742431640625,10.205776977539063,2.6315277099609378
109893,2.531236267089844,13.37663314819336,2.9861402893066407
109959,0.016615447998046876,10.472971343994141,1.522034912109375
110026,2.341131591796875,7.402107238769531,1.2287947082519532
110093,-0.6333329772949219,10.360555114746095,3.6061509704589847
110159,2.116149444580078,10.469229125976563,4.576732635498047
110226,-0.2977308654785156,8.317154388427735,1.3367202758789063
110292,0.116158447265625,6.202950897216797,1.4424005126953126
110359,0.2636018371582031,6.281387786865235,1.964963836669922
110426,0.35581008911132816,11.036100311279297,0.5761518859863282
110493,0.23186782836914063,9.397158508300782,1.6157400512695312
110559,0.8577163696289063,9.311386871337891,1.5567626953125
110626,0.3387455749511719,9.65477279663086,1.799857177734375
110693,0.9568103027343751,9.303752746582031,1.658551025390625
110759,0.1675016784667969,10.298733673095704,1.4287788391113283
110826,1.2648696899414062,9.775870971679687,2.373015289306641
110893,0.8430468750000001,11.147768096923828,1.8229092407226564
110959,1.3512400817871095,8.909772033691407,1.7838404846191407
111026,-0.18052459716796876,8.772058410644531,0.7011419677734375
111093,1.1564950561523437,8.887169036865235,0.9394464111328126
111160,0.17648300170898437,9.043444061279297,2.416125640869141
111226,1.5271243286132814,9.983489227294923,1.3051359558105469
111293,0.7875123596191407,10.429411926269532,0.3400927734375
111359,-0.12484039306640625,11.39834701538086,-0.15956817626953126
111426,0.15567626953125,11.99276092529297,-0.022602996826171878
111493,2.249971160888672,11.899504852294923,0.5191204833984375
111559,1.7762063598632813,9.820178833007812,1.475182342529297
111626,0.2881507873535156,9.620045013427735,2.265838165283203
111693,-0.23845413208007812,14.39496551513672,2.03337158203125
111759,0.6098318481445313,11.69443130493164,1.2856764221191408
111826,-0.31374755859375003,6.749763793945313,1.1449690246582032
111893,1.2801379394531252,7.646548919677735,1.292113037109375
111959,1.1428733825683595,9.544302520751954,0.9770182800292969
112026,0.899180145263672,9.27246780395508,1.719474334716797
112093,0.20851638793945312,8.922196197509766,1.3705499267578125
112159,0.13457015991210938,9.802515563964844,0.6216572570800781
112225,0.8433462524414063,10.665770416259766,1.2024494934082033
112293,0.9623487854003907,9.707912292480469,1.970951385498047
112359,0.512384490966797,8.962013397216797,2.979254608154297
112426,0.7785310363769532,9.313632202148439,0.8289761352539063
112492,-0.38170623779296875,8.240962829589844,2.6693989562988283
112559,-0.38514907836914064,9.327403564453126,1.8273999023437502
112626,1.6043637084960938,8.145012359619141,0.6679110717773438
112693,-0.3183879089355469,8.014334106445313,1.4376104736328126
112759,-0.2029779052734375,8.916208648681641,1.4388079833984375
112826,-0.20866607666015627,11.684851226806641,1.6063096618652344
112893,-0.49247589111328127,10.525811462402345,1.9598744201660157
112959,0.1071771240234375,11.650722198486328,1.0925779724121094
113026,-0.662222900390625,10.6865771484375,1.2340338134765625
113093,-0.13666580200195313,10.062824249267578,0.7447013854980469
113159,0.8930429077148438,9.259893951416016,2.113604736328125
113226,0.6968009948730469,9.608968048095704,2.032174072265625
113293,-0.5563929748535157,9.948611755371095,2.0246896362304687
113359,-0.3737727355957031,10.92218719482422,2.6890081787109374
113426,-0.04954696655273438,8.086633758544922,3.2287857055664064
113493,0.468226318359375,7.425159301757813,1.5634986877441408
113559,-0.890947265625,9.163644104003907,1.7559983825683594
113626,1.520538024902344,12.071048126220704,0.6400689697265626
113693,0.016316070556640624,11.723770294189453,0.2273771667480469
113759,0.5453160095214844,10.897039489746094,1.5031741333007813
113826,0.42945693969726567,8.200846252441407,0.659678192138672
113893,-0.2281256103515625,8.480315093994141,0.5044509887695313
113959,0.2650987243652344,8.194409637451173,0.9274713134765625
114026,-0.8137078857421876,7.477400665283204,3.0088929748535156
114093,0.587977294921875,11.396550750732423,1.9233503723144532
114159,-0.23965164184570314,11.5104638671875,1.7576449584960938
114226,0.26809249877929686,7.875722351074219,1.417552185058594
114293,-0.08637039184570312,7.617359619140625,2.1909938049316406
114359,0.38694534301757816,9.807904357910157,1.28373046875
114426,-0.29788055419921877,11.071726226806641,2.1508772277832033
114493,-0.3597019958496094,11.575728149414063,1.6627423095703127
114559,-0.051043853759765626,8.825197906494141,1.8523979187011719
114626,-0.22288650512695313,9.231453094482422,2.0904029846191405
114693,0.07409591674804687,7.769742736816407,0.8345146179199219
114759,0.9282197570800782,11.183693389892579,2.2999671936035155
114826,0.47675857543945316,12.949870605468751,-0.2435435485839844
114893,0.9295669555664063,10.681637420654297,1.8124310302734377
114959,0.28530670166015626,8.686586151123047,1.8844313049316408
115026,0.31644195556640625,10.649454345703125,1.646575927734375
115093,-0.5143304443359376,9.667047271728515,2.4507037353515626
115159,-0.5965095520019531,10.839858398437501,2.409090270996094
115226,-1.4352154541015625,11.420950012207031,1.086141357421875
115293,-1.0545570373535156,13.263468475341798,1.8525476074218752
115359,-1.4066249084472657,7.274273071289063,2.041604461669922
115426,-0.405955810546875,8.202193450927735,1.8471588134765626
115492,-0.923280029296875,10.003397827148438,1.4826667785644532
115560,-0.7047344970703125,9.250912628173829,2.3674768066406253
115626,-1.0154882812500001,10.251432037353515,1.8574873352050782
115693,-1.4456936645507814,8.848100280761718,1.648671569824219
115759,-1.0880873107910156,10.19080810546875,1.3858181762695314
115826,-1.1085946655273438,9.235045623779298,1.9730470275878906
115893,-1.117276611328125,9.646390228271486,1.4111155700683595
115959,-0.7798782348632813,9.358987884521484,2.009571075439453
116026,-0.5876779174804688,10.172396392822266,1.9974462890625
116093,-1.7622853088378907,10.215357055664063,1.3536351013183594
116159,-1.5907420349121095,9.469757537841797,2.359992370605469
116226,-1.9416123962402345,9.346863098144532,1.5272740173339845
116293,-1.3596226501464845,8.709039459228515,1.9425105285644533
116359,-1.6420852661132814,8.907975769042968,1.2138258361816407
116426,-1.1570938110351563,8.516240386962892,1.4191987609863281
116493,-1.1524534606933594,10.285561065673829,1.1602372741699218
116559,-0.9196875,10.247240753173829,1.9423608398437502
116626,-0.8147557067871094,10.059231719970704,1.6860937500000002
116693,0.4770579528808594,9.596094818115235,1.53041748046875
116760,-1.3130694580078126,10.387050018310548,2.065404968261719
116826,-1.269210662841797,10.711575164794922,1.5145504760742188
116893,-0.9897418212890625,9.500892791748047,2.16270263671875
116959,-1.275347900390625,11.03909408569336,1.7917739868164064
117026,-1.7994081115722658,9.120384063720703,2.186503143310547
117093,-1.139879608154297,9.812245330810548,2.0564236450195312
117159,-1.101409606933594,8.364006958007813,2.435285797119141
117226,0.444276123046875,10.767109680175782,1.8064434814453125
117293,0.18636245727539064,12.040062561035157,2.3641836547851565
117359,0.2245330810546875,7.710166625976563,3.973187713623047
117426,0.2712359619140625,13.930032348632814,-1.8923648071289063
117493,3.6968623352050782,11.16887420654297,-0.01107696533203125
117559,-0.20926483154296877,11.679462432861328,1.312470703125
117626,-0.12424163818359375,9.284442901611328,0.8390052795410157
117693,-0.037122802734375,4.829856262207032,0.4796026611328125
117760,-0.032332763671875,11.165880432128906,0.9659413146972656
117826,-0.27153533935546875,11.664044494628907,2.7307713317871096
117893,0.6451583862304687,15.021861877441408,1.9318826293945313
117960,0.48154861450195313,10.397977294921876,0.7539820861816406
118026,0.025896148681640627,9.07757308959961,1.2175680541992189
118093,0.5884263610839844,10.004295959472657,1.050066375732422
118159,0.738863525390625,9.312434692382814,1.598675537109375
118226,0.21540206909179688,10.747949523925781,2.2767654418945313
118293,0.5013075256347657,10.976224822998047,1.8016534423828126
118359,0.8211923217773438,10.084229736328126,1.8604811096191407
118426,-0.08292755126953126,11.143726501464844,1.531614990234375
118493,-1.4700929260253908,7.440876617431641,2.6551785278320312
118559,-1.039288787841797,13.188773803710939,0.9942324829101563
118626,0.13202545166015625,9.774823150634766,1.5257771301269532
118693,0.46418472290039064,9.321266326904297,1.2903167724609375
118760,0.1776805114746094,10.504405975341797,1.870360565185547
118826,0.4816983032226563,10.501412200927735,2.428400115966797
118893,0.5306465148925782,10.495274963378908,1.6664845275878908
118960,0.7306306457519531,10.111922149658204,1.4576687622070312
119026,0.239501953125,9.562115478515626,1.6365467834472658
119093,0.16555572509765626,9.396260375976563,1.7094451904296877
119159,0.5132826232910157,10.375074920654297,2.216141510009766
119226,0.5243595886230469,9.556427307128907,1.2928614807128906
119293,-0.23486160278320314,9.77736785888672,1.9893630981445314
119359,0.6162684631347657,9.628128204345703,1.320703582763672
119426,1.0985655212402343,10.111173706054688,1.460662536621094
119493,0.6873706054687501,9.741143188476563,1.1618838500976563
119560,0.9818083190917969,8.40262664794922,1.3407618713378906
119626,2.394720153808594,9.692194976806642,0.9627978515625001
119693,1.842967529296875,10.193502502441406,0.8316705322265625
119760,2.3378384399414065,8.565637664794922,0.9113049316406251
119826,2.8060647583007814,9.659263458251953,1.0829978942871095
119893,2.4273522949218753,8.866661682128907,0.9196875
119960,3.2997381591796877,9.650282135009766,0.59396484375
120026,3.2192056274414065,9.366322631835938,1.3289364624023439
120093,3.5042129516601563,9.585915985107423,1.1081455993652345
120159,4.924908599853516,11.098370819091798,0.6530918884277344
120226,4.06958724975586,10.930719451904297,0.6767427062988282
120293,3.457061004638672,9.63890579223633,0.967438201904297
120359,2.7643016052246097,9.601034545898438,0.6441105651855469
120426,3.506458282470703,8.149053955078125,1.4229409790039063
120493,2.4541465759277346,11.496243438720704,4.3417213439941404
120560,2.9394374084472656,11.786789245605469,2.1409977722167968
120626,3.4358052062988285,10.661429443359376,1.9461030578613283
120693,2.320624237060547,11.311078491210939,0.7104226684570313
120760,3.509452056884766,10.110874328613281,0.4848417663574219
120826,3.6431240844726562,10.905571746826173,1.354084167480469
120893,4.655768280029297,9.282496948242189,1.6193325805664063
120960,3.5383419799804687,8.752748565673828,0.3070115661621094
121026,3.8315821838378907,9.286538543701173,-1.5149995422363283
121093,3.156785430908203,8.348289642333985,0.7940986633300782
121159,3.6068994140625,11.071426849365235,1.4254856872558594
121226,4.31343017578125,11.583362274169922,2.0305274963378905
121293,3.6506085205078125,9.457632751464844,0.316142578125
121360,2.4445664978027346,8.59662322998047,-0.11226654052734375
121426,2.601889343261719,8.781189422607422,0.41852966308593753
121493,2.2177880859375003,10.255623321533204,1.696721649169922
121559,2.3336471557617187,10.086175689697265,2.0100201416015624
121626,0.7939489746093751,10.19035903930664,3.214864654541016
121693,1.6685801696777345,9.767787780761719,2.674937438964844
121759,1.192570037841797,8.857530670166016,2.652035064697266
121826,0.724493408203125,8.680448913574219,2.439327392578125
121893,1.7898280334472658,9.107361145019532,2.4400758361816406
121960,1.240470428466797,9.333989868164062,2.3617886352539066
122026,2.178419952392578,8.287066955566406,2.823578338623047
122093,2.9009674072265628,9.553583221435547,3.3769775390625
122160,1.30049560546875,9.40613983154297,3.8350250244140627
122226,2.1607566833496095,8.368048553466798,3.4588572692871096
122293,1.21427490234375,9.729916534423829,3.346590728759766
122359,2.075284423828125,10.097552032470704,3.655847625732422
122426,0.5665718078613281,8.526868286132814,3.0356872558593753
122493,2.0052301025390626,8.556806030273439,3.138373718261719
122559,1.97589111328125,9.154812469482422,3.2611184692382813
122626,2.3918760681152347,9.884544982910157,3.3292268371582034
122693,2.521805877685547,9.444160766601563,2.3285577392578127
122760,1.8567388916015626,9.241931304931642,2.2242247009277345
122826,1.9067349243164065,9.512867889404298,3.081192626953125
122893,2.9237200927734377,11.110345916748047,2.792293395996094
122960,1.7522561645507813,9.951755218505859,2.7104136657714846
123026,2.016456756591797,8.279732208251954,2.161505126953125
123093,0.7309300231933594,9.606573028564453,3.050955505371094
123160,1.0505154418945313,9.223519592285157,2.6134153747558595
123226,0.43304946899414065,9.091793518066407,2.620001678466797
123293,0.07933502197265625,9.067843322753907,3.147953796386719
123360,0.05673202514648438,9.200916595458985,2.7475364685058596
123426,0.6330335998535157,9.636959838867188,2.78540771484375
123493,0.828527069091797,9.690099334716797,3.3581167602539064
123560,-0.1579216003417969,9.71988739013672,2.961291961669922
123626,0.8918453979492188,9.577533416748047,3.5516642761230472
123693,0.5272036743164062,9.207053833007812,2.9560528564453126
123760,1.7964143371582033,9.104666748046876,3.114124145507813
123826,0.19085311889648438,7.776628417968751,2.997516632080078
123893,1.0577005004882813,8.621621246337892,3.721710662841797
123960,1.40587646484375,10.616971893310547,3.2489936828613284
124026,0.5004093933105469,9.95654525756836,4.2379870605468755
124093,1.0795550537109375,9.969717864990235,4.207899627685547
124160,1.0581495666503906,8.70065689086914,2.705324249267578
124226,0.628692626953125,9.621392211914063,3.1201116943359377
124293,0.8509803771972657,8.762029266357422,3.128793640136719
124359,0.4517605590820313,9.809700622558594,3.3497341918945316
124426,0.9289682006835938,9.904603271484376,3.690126342773438
124493,0.6768923950195312,9.728868713378906,3.8378691101074223
124559,0.3549119567871094,9.723779296875,3.6432737731933598
124626,0.8214916992187501,8.874595184326171,3.6637811279296875
124693,0.3661386108398438,9.484127655029297,3.8464013671875
124760,0.18830841064453127,9.875863037109376,3.7018020629882815
124826,0.07349716186523438,8.970096588134766,3.690575408935547
124893,-0.13367202758789062,9.397158508300782,2.1653970336914066
124960,0.4339476013183594,9.351653137207032,1.82021484375
125026,0.27138565063476566,9.586514739990236,1.7522561645507813
125093,0.271834716796875,9.963580627441408,1.6997154235839844
125160,0.32257919311523436,9.429341583251954,2.0005897521972655
125226,0.20507354736328126,9.517059173583984,2.0278330993652345
125293,0.6923103332519531,9.688153381347657,2.3209236145019534
125360,0.5604345703125,9.14657958984375,2.6361680603027344
125426,-0.019010467529296877,9.87032455444336,2.797083435058594
125493,0.15672409057617187,9.768087158203125,2.655627593994141
125560,0.007634124755859375,9.447453918457033,2.6327252197265625
125626,0.1490899658203125,9.355545043945312,2.5307872009277346
125693,0.8538244628906251,9.325307922363281,2.568658447265625
125760,0.5551954650878906,9.652377777099609,2.7891499328613283
125826,0.07095245361328126,9.769134979248047,1.97110107421875
125893,0.5010081481933594,9.40045166015625,1.7824932861328127
125960,0.05433700561523438,9.656419372558593,1.9576290893554689
126026,0.36000137329101567,9.935139770507813,2.312241668701172
126093,0.5254074096679687,9.550439758300781,2.3212229919433596
126160,-0.16241226196289063,9.361981658935548,2.1076171875000003
126226,0.21390518188476565,9.448202362060547,2.040406951904297
126293,0.4068539428710938,9.195228424072265,2.495460662841797
126359,0.09355545043945312,9.697134704589844,2.1939875793457033
126426,0.5183720397949219,9.100325775146485,2.068997497558594
126493,0.33664993286132816,9.207802276611329,2.121687927246094
126560,0.2974314880371094,9.775272216796875,2.14833251953125
126626,0.5545967102050782,9.746531982421876,1.858235778808594
126693,0.13846206665039062,9.621990966796876,1.7046551513671875
126760,0.7598199462890626,9.623487854003907,2.0375628662109375
126826,0.4417314147949219,9.549092559814454,2.305206298828125
