relative_time,AccX,AccY,AccZ
0,-0.6572831726074219,9.655221862792969,1.2771441650390625
42,-0.21210891723632813,9.653874664306642,1.2326866149902345
102,-0.37781433105468754,9.66480194091797,1.2461585998535156
168,-0.41044647216796876,9.673334197998047,1.2654684448242188
241,-0.4165837097167969,9.669292602539063,1.269210662841797
304,-0.4674778747558594,9.659263458251953,1.2433145141601563
367,-0.49412246704101564,9.649533691406251,1.2805870056152344
437,-0.4836442565917969,9.655820617675781,1.2850776672363282
500,-0.4677772521972656,9.692344665527344,1.2690609741210939
568,-0.44382705688476565,9.698930969238281,1.221160583496094
641,-0.44457550048828126,9.649084625244141,1.2648696899414062
704,-0.4980143737792969,9.664053497314454,1.3066328430175782
767,-0.5284011840820313,9.685009918212891,1.2766950988769532
837,-0.4986131286621094,9.625134429931641,1.259630584716797
901,-0.4471202087402344,9.6710888671875,1.2475057983398439
968,-0.4285588073730469,9.700427856445312,1.2546908569335937
1040,-0.4704716491699219,9.65477279663086,1.2922627258300783
1101,-0.5378315734863282,9.655221862792969,1.2690609741210939
1168,-0.5176235961914063,9.673483886718751,1.2597802734375
1237,-0.41987686157226567,9.67827392578125,1.2760963439941406
1301,-0.40011795043945314,9.685009918212891,1.2515473937988282
1368,-0.501606903076172,9.662257232666017,1.264420623779297
1436,-0.5459147644042969,9.649084625244141,1.2846286010742187
1501,-0.5289999389648438,9.649084625244141,1.2255015563964844
1568,-0.42107437133789066,9.663155364990235,1.2801379394531252
1640,-0.3852987670898438,9.733059997558595,1.2789404296875
1701,-0.4692741394042969,9.668993225097656,1.2022998046875
1767,-0.5581892395019532,9.644144897460938,1.2615765380859376
1837,-0.5574407958984375,9.70267318725586,1.3210029602050781
1900,-0.4812492370605469,9.591753845214845,1.2951068115234377
1967,-0.42167312622070313,9.665251007080078,1.2475057983398439
2037,-0.3680845642089844,9.799072723388672,1.221310272216797
2101,-0.40745269775390625,9.642947387695314,1.1452684020996093
2168,-0.5243595886230469,9.63755859375,1.3657598876953125
2236,-0.6749464416503906,9.724827117919922,1.3846206665039062
2301,-0.5643264770507813,9.674232330322265,1.1981085205078126
2367,-0.3183879089355469,9.615254974365234,1.148411865234375
2440,-0.28351043701171874,9.70312225341797,1.289718017578125
2501,-0.5129832458496094,9.66914291381836,1.3117222595214844
2567,-0.6517446899414063,9.626182250976562,1.2485536193847657
2637,-0.5050497436523438,9.673633575439453,1.2352313232421877
2701,-0.36658767700195316,9.728868713378906,1.2838801574707033
2767,-0.396375732421875,9.680668945312501,1.2769944763183594
2836,-0.5381309509277344,9.638157348632813,1.2391232299804689
2901,-0.5637277221679687,9.660311279296875,1.2370275878906252
2967,-0.4592449951171875,9.720186767578125,1.3177098083496095
3041,-0.4471202087402344,9.645941162109375,1.265618133544922
3102,-0.46478347778320317,9.672735443115235,1.1970606994628907
3168,-0.4860392761230469,9.683812408447267,1.282532958984375
3236,-0.48753616333007815,9.63710952758789,1.304237823486328
3301,-0.4986131286621094,9.701026611328125,1.2672647094726563
3368,-0.4944218444824219,9.681417388916016,1.2731025695800782
3436,-0.45385620117187503,9.680070190429689,1.2370275878906252
3500,-0.4125421142578125,9.681417388916016,1.2710069274902345
3567,-0.5059478759765625,9.64758773803711,1.2946577453613282
3640,-0.5885760498046876,9.650282135009766,1.2487033081054688
3702,-0.47840515136718753,9.680070190429689,1.2521461486816408
3767,-0.34398468017578127,9.67393295288086,1.2614268493652345
3837,-0.44382705688476565,9.681417388916016,1.2461585998535156
3901,-0.5816903686523438,9.662706298828125,1.2747491455078126
3968,-0.5975573730468751,9.643097076416016,1.2934602355957032
4036,-0.40071670532226566,9.715247039794923,1.2436138916015627
4101,-0.3782633972167969,9.65761688232422,1.2647200012207032
4168,-0.46613067626953125,9.634564819335939,1.2506492614746094
4242,-0.5676196289062501,9.70985824584961,1.2781919860839845
4301,-0.4770579528808594,9.651779022216797,1.299148406982422
4368,-0.46762756347656254,9.6710888671875,1.222507781982422
4437,-0.41269180297851565,9.6710888671875,1.256187744140625
4501,-0.44726989746093754,9.640252990722656,1.3135185241699219
4567,-0.5342390441894531,9.671837310791016,1.2497511291503907
4636,-0.5766009521484375,9.658065948486328,1.2838801574707033
4703,-0.47660888671875,9.670639801025391,1.2696597290039062
4768,-0.3650907897949219,9.67587890625,1.246457977294922
4838,-0.3634442138671875,9.682016143798828,1.2626243591308595
4901,-0.5644761657714844,9.651180267333984,1.251098327636719
4967,-0.5974076843261719,9.65866470336914,1.2771441650390625
5036,-0.48993118286132814,9.679022369384766,1.2910652160644531
5101,-0.3426374816894531,9.673184509277345,1.2413685607910157
5167,-0.40131546020507813,9.673633575439453,1.2341835021972656
5238,-0.5492079162597656,9.677675170898437,1.2808863830566406
5301,-0.5751040649414063,9.655221862792969,1.3064831542968751
5367,-0.48514114379882817,9.66584976196289,1.2542417907714845
5436,-0.3823049926757813,9.708960113525391,1.246457977294922
5501,-0.42870849609375,9.654473419189454,1.2783416748046876
5568,-0.520767059326172,9.640851745605469,1.2606784057617189
5642,-0.5322930908203125,9.67872299194336,1.257534942626953
5702,-0.4421804809570313,9.69309310913086,1.2841795349121095
5768,-0.4086502075195313,9.660610656738282,1.2766950988769532
5837,-0.49517028808593755,9.660311279296875,1.229842529296875
5901,-0.5322930908203125,9.727222137451172,1.2701087951660157
5968,-0.4697232055664063,9.671687622070314,1.3010943603515626
6036,-0.44337799072265627,9.627529449462891,1.2278965759277345
6102,-0.4635859680175782,9.679471435546876,1.2421170043945313
6168,-0.4942721557617188,9.687554626464845,1.2903167724609375
6238,-0.4596940612792969,9.654024353027344,1.2725038146972656
6301,-0.4531077575683594,9.668095092773438,1.219214630126953
6368,-0.49951126098632814,9.660760345458986,1.2633728027343751
6436,-0.5104385375976562,9.664053497314454,1.3085787963867188
6501,-0.5053491210937501,9.717342681884766,1.2748988342285157
6567,-0.44038421630859376,9.672585754394532,1.2620256042480469
6640,-0.4278103637695313,9.628277893066407,1.2638218688964844
6701,-0.4788542175292969,9.650132446289064,1.224902801513672
6767,-0.41882904052734377,9.697733459472657,1.2624746704101564
6837,-0.4890330505371094,9.654623107910156,1.2757969665527344
6901,-0.5135820007324219,9.65761688232422,1.2451107788085938
6967,-0.5218148803710938,9.64609085083008,1.2946577453613282
7036,-0.4525090026855469,9.636361083984376,1.304237823486328
7101,-0.4477189636230469,9.6902490234375,1.230890350341797
7168,-0.40131546020507813,9.652228088378907,1.1425740051269533
7240,-0.46343627929687503,9.666298828125,1.3512400817871095
7301,-0.5158273315429688,9.706116027832032,1.3428575134277345
7368,-0.5227130126953126,9.658065948486328,1.2069401550292969
7437,-0.46837600708007815,9.604776763916016,1.2554393005371094
7501,-0.42945693969726567,9.655820617675781,1.32444580078125
7567,-0.49367340087890627,9.602681121826173,1.2219090270996094
7640,-0.4608915710449219,9.665700073242188,1.2025991821289064
7702,-0.4082011413574219,9.667047271728515,1.3139675903320314
7768,-0.4927752685546875,9.709409179687501,1.2972024536132813
7837,-0.5686674499511719,9.63082260131836,1.2469070434570313
7901,-0.5032534790039063,9.649234313964845,1.2566368103027343
7967,-0.40131546020507813,9.711654510498047,1.2796888732910157
8042,-0.41987686157226567,9.657317504882814,1.2463082885742187
8102,-0.4412823486328125,9.634714508056641,1.233285369873047
8167,-0.4734654235839844,9.710606689453126,1.2774435424804689
8237,-0.5131329345703125,9.6183984375,1.3233979797363282
8301,-0.531544647216797,9.632469177246094,1.2323872375488283
8367,-0.469423828125,9.681417388916016,1.2487033081054688
8436,-0.43544448852539064,9.638456726074219,1.2805870056152344
8501,-0.46882507324218753,9.674681396484376,1.2467573547363282
8567,-0.49906219482421876,9.673633575439453,1.2543914794921875
8639,-0.45879592895507815,9.665700073242188,1.2795391845703126
8701,-0.6204597473144532,9.65866470336914,1.114731903076172
8767,-0.439486083984375,9.619895324707032,1.2536430358886719
8836,-0.5111869812011719,9.689350891113282,1.3084291076660157
8901,-0.6556365966796875,9.94936019897461,0.9868977355957032
8968,-0.5786965942382812,10.081385650634767,1.1114387512207031
9040,-0.3769161987304688,9.672735443115235,1.1487112426757813
9101,-0.05763015747070313,9.462422790527345,1.460812225341797
9167,-0.46253814697265627,9.783505096435547,1.0900332641601562
9237,-0.46478347778320317,9.57723403930664,1.1587403869628907
9300,-0.6776408386230469,9.836345214843751,1.135089569091797
9367,-1.148411865234375,10.765014038085939,1.1852352905273438
9436,-0.6015989685058594,9.91972183227539,1.1979588317871095
9501,-0.08158035278320312,10.683882751464845,1.5263758850097657
9568,-0.07424560546875,8.710386657714844,1.3909075927734376
9642,-0.07050338745117188,9.882898406982422,0.967438201904297
9701,-0.4448748779296875,9.84876937866211,1.2829820251464845
9767,-0.28186386108398437,10.286608886718751,1.3802796936035158
9837,-0.24504043579101564,9.455237731933595,1.2591815185546875
9901,-0.44262954711914065,9.858948211669922,1.5287709045410156
9967,-0.59156982421875,9.555978240966798,1.244362335205078
10036,-0.5469625854492188,9.665251007080078,1.1285032653808593
10101,-0.4236190795898438,9.279203796386719,1.3166619873046876
10167,-0.4528083801269531,9.704319763183594,1.4114149475097657
10238,-0.5454656982421875,9.612710266113282,1.1611354064941406
10301,-0.671802978515625,10.367141418457031,1.4530284118652343
10367,-0.34129028320312504,9.69593719482422,1.1764036560058595
10436,-0.7240443420410156,9.979148254394532,1.24780517578125
10500,-0.2621049499511719,9.091643829345703,1.2362791442871095
10568,-0.5887257385253907,9.347312164306642,1.2600796508789063
10636,-0.3897894287109375,9.726024627685547,1.289418640136719
10703,-0.3016227722167969,8.992549896240234,1.2204121398925782
10768,-0.6569837951660157,10.261012115478517,1.3418096923828127
10838,-0.2633024597167969,9.663155364990235,1.1765533447265626
10917,-0.5382806396484375,9.435778198242188,1.3022918701171875
10968,-0.41284149169921874,10.263856201171876,1.2886701965332032
11038,-0.4635859680175782,9.609866180419923,1.193917236328125
11101,-0.6575825500488282,10.214159545898438,1.2452604675292969
11167,-0.5260061645507813,10.265802154541015,1.2253518676757813
11238,-0.2743794250488281,9.792935485839845,1.1958631896972658
11300,-0.650247802734375,9.957443389892578,1.2666659545898438
11367,-0.5156776428222657,10.156978454589844,1.3000465393066407
11437,-0.38889129638671877,9.755213928222657,1.2499008178710938
11501,-0.5182223510742188,10.034832458496094,1.2981005859375
11567,-0.4740641784667969,10.005044403076173,1.3037887573242188
11636,-0.314945068359375,9.737550659179687,1.2021501159667969
11701,-0.4677772521972656,9.682465209960938,1.2412188720703126
11767,-0.5777984619140625,10.068512420654297,1.384171600341797
11838,-0.188009033203125,9.724078674316408,1.1900253295898438
11901,-0.2712359619140625,9.418264617919922,1.2109817504882814
11967,-0.5225633239746094,9.304351501464843,1.184187469482422
12036,-0.6602769470214844,9.471104736328126,1.260828094482422
12101,-0.3351530456542969,9.412576446533203,1.1035052490234376
12168,-0.23381378173828127,9.678423614501954,1.2320878601074219
12240,-0.5905220031738282,9.849368133544923,1.3439053344726564
12301,-0.6613247680664063,9.833800506591798,1.3518388366699219
12367,-0.40266265869140627,9.674082641601563,1.251248016357422
12437,-0.40490798950195317,9.636810150146484,1.2786410522460938
12501,-0.5382806396484375,9.494905242919922,1.217867431640625
12567,-0.5803431701660157,9.565408630371094,1.2139755249023438
12636,-0.501756591796875,9.800719299316407,1.3141172790527345
12701,-0.4002676391601563,9.826166381835938,1.2362791442871095
12768,-0.38395156860351565,9.624835052490235,1.323098602294922
12838,-0.5978567504882812,9.786648559570313,1.4241384887695314
12901,-0.3848497009277344,9.63082260131836,1.29091552734375
12967,-0.4812492370605469,9.47754135131836,1.2183164978027345
13036,-0.2770738220214844,9.525591430664063,1.159039764404297
13101,-0.4029620361328125,9.88229965209961,1.260977783203125
13167,-0.6533912658691406,9.79278579711914,1.3599220275878907
13240,-0.5107379150390625,9.488468627929688,1.234333190917969
13300,-0.3158432006835938,9.400751037597656,1.1575428771972658
13367,-0.4093986511230469,9.492210845947266,1.1596385192871095
13437,-0.5192701721191406,9.911638641357422,1.2171189880371094
13501,-0.6873706054687501,9.881251831054689,1.3163626098632812
13567,-0.5834866333007813,9.602980499267579,1.265618133544922
13635,-0.19474502563476564,9.247320098876953,1.0960208129882814
13701,-0.24339385986328127,9.669891357421875,1.1391311645507813
13768,-0.63228515625,9.8435302734375,1.30049560546875
13838,-0.7466473388671876,9.871072998046875,1.2983999633789063
13901,-0.47256729125976565,9.590855712890626,1.3720468139648438
13968,-0.2221380615234375,9.36258041381836,1.1552975463867188
14036,-0.4724176025390625,9.454638977050783,1.1036549377441407
14101,-0.6355783081054688,9.906998291015626,1.3320799255371094
14168,-0.6376739501953125,9.858648834228516,1.337618408203125
14238,-0.35057098388671876,9.733209686279297,1.2147239685058595
14301,-0.2938389587402344,9.419911193847657,1.1597882080078126
14368,-0.31748977661132816,9.662556610107423,1.199605407714844
14436,-0.5474116516113281,9.853260040283203,1.3331277465820313
14501,-0.5258564758300781,9.880204010009766,1.3910572814941407
14567,-0.4273612976074219,9.597591705322266,1.40587646484375
14643,-0.4025129699707031,9.688153381347657,1.3371693420410158
14701,-0.3261717224121094,9.638756103515625,1.2879217529296876
14768,-0.7364685058593751,9.834249572753906,1.3618679809570313
14837,-0.5794450378417969,9.91148895263672,1.3320799255371094
14901,-0.3514691162109375,9.657467193603516,1.2798385620117188
14967,-0.3375480651855469,9.581425323486329,1.1940669250488283
15036,-0.4399351501464844,9.523346099853516,1.3442047119140625
15101,-0.69695068359375,9.755662994384766,1.2717553710937501
15167,-0.6375242614746094,9.906848602294922,1.3102253723144532
15236,-0.3192860412597656,9.77691879272461,1.3184582519531252
15301,-0.35700759887695316,9.635013885498047,1.2602293395996094
15367,-0.41463775634765626,9.401499481201173,1.2494517517089845
15438,-0.5801934814453126,9.51915481567383,1.5964302062988283
15500,-0.5825885009765626,9.690099334716797,1.4627581787109376
15567,-0.4017645263671875,9.436676330566407,1.5260765075683596
15636,-0.18621276855468752,9.270821228027344,1.4114149475097657
15701,-0.2794688415527344,10.062075805664064,1.315913543701172
15768,-0.19145187377929687,9.649234313964845,1.4166540527343752
15838,-0.31883697509765624,9.281000061035156,1.654808807373047
15900,-0.3722758483886719,9.8483203125,1.3862672424316407
15968,-0.060474243164062504,9.279353485107423,1.5284715270996094
16036,-0.4932243347167969,9.655221862792969,1.4316229248046877
16101,-0.14415023803710938,9.43353286743164,1.638193359375
16167,-0.04206253051757813,9.128018188476563,1.7905764770507813
16241,-0.5557942199707031,10.092761993408203,1.4576687622070312
16300,-0.5899232482910156,10.149793395996094,1.4275813293457031
16367,-0.10463241577148438,9.68261489868164,1.5869998168945314
16437,-0.36254608154296875,9.21079605102539,2.04295166015625
16500,-0.487386474609375,9.533674621582032,1.788929901123047
16567,0.025147705078125002,9.741292877197266,1.3632151794433593
16640,-0.46418472290039064,9.53307586669922,1.7461189270019533
16702,-0.2213896179199219,10.518776092529297,1.4138099670410158
16768,-0.1981878662109375,10.253976745605469,1.7980609130859375
16836,-0.3200344848632813,10.61083465576172,1.5940351867675782
16901,-0.3040177917480469,9.000184020996095,1.4617103576660158
16967,-0.5255570983886719,10.072853393554688,1.693129119873047
17036,-0.23516098022460938,9.145232391357423,1.4385086059570313
17101,-0.7283853149414062,9.669741668701173,1.2112811279296876
17167,-0.4340972900390625,9.44356201171875,1.0383906555175781
17238,-0.4836442565917969,10.110275573730469,1.2689112854003908
17300,-0.4796026611328125,9.43353286743164,0.9921368408203125
17368,-0.49337402343750003,9.45748306274414,1.1120375061035157
17437,-0.5399272155761718,9.953850860595704,1.477577362060547
17501,-0.5451663208007813,9.569599914550782,1.2946577453613282
17567,-0.5545967102050782,10.064620513916017,1.2533436584472657
17641,-0.5297483825683594,9.770781555175782,1.214125213623047
17700,-0.5318440246582031,9.682764587402344,1.1856843566894533
17768,-0.5478607177734375,9.768835601806641,1.1563453674316406
17837,-0.4900808715820313,9.9680712890625,1.4290782165527345
17901,-0.47840515136718753,9.305848388671876,1.205892333984375
17968,-0.4577481079101563,9.389823760986328,1.041534118652344
18041,-0.5803431701660157,10.079290008544922,1.4426998901367187
18100,-0.42466690063476564,9.408834228515625,1.3563294982910157
18167,-0.44307861328125003,9.699679412841798,1.5078144836425782
18238,-0.6411167907714844,10.187365264892579,1.3232482910156251
18300,-0.3023712158203125,9.534273376464844,1.320703582763672
18367,-0.718505859375,9.769284667968751,1.3415103149414063
18436,-0.23426284790039065,9.060957641601563,1.3391152954101564
18501,-0.7021897888183594,10.036179656982423,1.4891033935546876
18567,-0.14609619140625002,9.723629608154297,1.5453863525390625
18638,-0.7024891662597657,9.904154205322266,1.5117063903808594
18700,-0.4140390014648438,9.847422180175782,1.5331118774414063
18767,-0.30551467895507817,9.791588287353516,1.5367044067382813
18839,-0.5417234802246094,9.902956695556641,1.7160314941406252
18901,-0.4540058898925782,9.539063415527345,1.763632507324219
18967,-0.5391787719726563,9.103768615722657,1.5729290771484377
19037,-0.415535888671875,9.819280700683594,1.4931449890136719
19101,-0.4117936706542969,9.391470336914063,1.768422546386719
19167,-0.7896080017089844,9.998607788085938,1.5244299316406251
19242,-0.42885818481445315,9.155710601806641,1.5910414123535157
19300,-0.8896000671386719,9.995164947509766,1.3699511718750002
19367,-0.6360273742675782,10.173444213867189,1.4910493469238282
19437,-0.7785310363769532,9.943821716308594,1.3320799255371094
19500,-0.6640191650390626,9.353599090576173,1.12326416015625
19567,-0.3345542907714844,9.179361419677734,1.3133688354492188
19642,-0.7664062500000001,9.430239715576173,1.3964460754394532
19701,-0.7162605285644532,9.468110961914062,1.387614440917969
19767,-0.6101312255859376,9.037456512451172,1.3415103149414063
19838,-0.5384303283691406,10.122100982666016,1.3910572814941407
19900,-0.2966830444335938,9.504635009765625,1.3265414428710938
19967,-0.7122189331054688,9.620943145751953,1.234333190917969
20041,-0.38035903930664067,9.48083450317383,1.3551319885253907
20101,-0.3308120727539063,10.052944793701172,1.5492782592773438
20167,-0.18336868286132812,8.992998962402345,1.3437556457519533
20236,-0.2505789184570313,9.796228637695313,1.576970672607422
20300,-0.4698728942871094,9.420659637451172,1.4326707458496095
20367,-0.45954437255859376,9.558822326660156,1.611698455810547
20439,-0.18561401367187502,9.382788391113282,1.6007711791992187
20500,-0.38320312500000003,9.491312713623048,1.4745835876464843
20567,-0.3008743286132813,9.207203521728516,1.5245796203613282
20637,-0.5002597045898438,9.753118286132812,1.564995574951172
20704,-0.511336669921875,9.329199829101563,1.3457015991210939
20767,-0.7785310363769532,9.792935485839845,1.5983761596679689
20838,-0.34503250122070317,9.742340698242188,1.50167724609375
20900,-0.7336244201660157,10.131681060791015,1.5929873657226563
20967,-0.5559439086914063,10.147398376464844,1.5152989196777344
21036,-0.4519102478027344,10.087971954345704,1.4732363891601563
21100,-0.5301974487304688,9.75970458984375,1.4699432373046877
21167,-0.8207432556152344,9.598340148925782,1.6944763183593752
21238,-0.7247927856445313,9.342971191406251,1.6007711791992187
21301,-0.5908213806152344,9.897867279052734,1.5714321899414063
21367,-0.5188211059570312,9.919123077392578,1.354084167480469
21436,-0.4689747619628907,9.308542785644532,1.3329780578613282
21500,-0.4831951904296875,9.649084625244141,1.4078224182128907
21567,-0.544866943359375,9.394464111328125,1.5009288024902345
21637,-0.6768923950195312,9.146729278564454,1.6134947204589845
21700,-0.8301736450195313,9.8626904296875,1.6745677185058594
21767,-0.6906637573242188,9.200317840576172,1.6603472900390626
21837,-0.9357041931152345,9.817334747314453,1.7564474487304689
21900,-1.349593505859375,9.718240814208984,1.5164964294433594
21967,-1.1059002685546875,9.611063690185548,1.388961639404297
22038,-0.9051676940917969,9.384584655761719,1.1660751342773439
22101,-0.6724017333984376,9.819430389404298,1.2241543579101564
22167,-0.8208929443359375,9.882000274658203,1.423839111328125
22238,-0.7920030212402344,10.02644989013672,1.287472686767578
22300,-0.5725593566894531,9.487720184326172,1.2593312072753906
22367,-0.8132588195800782,9.790989532470704,1.4061758422851562
22438,-0.9714797973632813,10.583441619873048,1.5846047973632813
22500,-1.2713063049316407,9.504036254882813,1.5280224609375002
22567,-1.5630496215820313,9.49475555419922,1.0210267639160158
22640,-1.3066328430175782,9.241631927490236,0.7467970275878907
22701,-1.5524217224121095,10.127639465332031,0.9632469177246095
22767,-1.2014016723632812,9.209448852539063,0.6412664794921875
22838,-1.1885284423828126,9.917476501464844,0.6894662475585938
22900,-1.072819061279297,9.424551544189454,0.662222900390625
22967,-1.4338682556152345,10.092462615966797,0.7150630187988282
23038,-1.20469482421875,9.786349182128907,0.8532257080078125
23100,-1.071471862792969,9.91148895263672,0.6602769470214844
23167,-0.8669970703125001,9.426198120117188,0.6012995910644532
23236,-0.8934919738769531,10.046358489990235,0.8255332946777344
23300,-0.9686357116699219,9.857750701904298,1.1752061462402343
23367,-0.8845106506347656,9.776469726562501,0.9527687072753906
23436,-1.011596374511719,9.732161865234376,1.0398875427246095
23500,-0.8777746582031251,9.827363891601562,1.1286529541015626
23567,-0.8240364074707032,9.945617980957032,1.251098327636719
23637,-0.7351213073730469,9.291478271484376,0.9142987060546875
23701,-0.909957733154297,9.767787780761719,1.1755055236816407
23767,-0.5947132873535157,9.328152008056641,1.1816427612304687
23838,-0.7397616577148438,10.08827133178711,1.3564791870117188
23900,-0.6149212646484375,9.21169418334961,1.1392808532714844
23967,-0.8063731384277344,9.60447738647461,1.4004876708984375
24036,-0.5421725463867187,9.395811309814453,1.2424163818359375
24100,-0.8265811157226562,10.196645965576172,1.4087205505371094
24167,-0.5989045715332032,9.478140106201172,1.1810440063476564
24237,-1.167721710205078,9.91972183227539,0.8575666809082032
24300,-0.8896000671386719,9.056916046142579,0.34712814331054687
24368,-0.9948312377929688,9.702074432373047,0.3848497009277344
24438,-0.6423143005371094,10.314001922607423,0.6599775695800781
24501,-0.8370593261718751,10.411299591064454,0.6279441833496094
24567,-0.8879534912109376,9.325756988525391,0.384400634765625
24640,-0.7348219299316406,9.394464111328125,0.5504054260253907
24700,-0.9038204956054688,10.27074188232422,0.8436456298828126
24769,-0.7476951599121094,9.851763153076172,0.4245172119140625
24838,-0.8828640747070313,9.906848602294922,-0.27228378295898437
24900,-0.9247769165039063,9.424252166748047,-0.3165916442871094
24967,-0.8084687805175782,9.685009918212891,-0.4448748779296875
25036,-0.8921447753906251,9.752818908691406,-0.5700146484375
25100,-0.7548802185058594,10.01402572631836,-0.25342300415039065
25168,-0.6264472961425781,9.901908874511719,-0.5360353088378906
25240,-0.6268963623046875,10.078541564941407,-0.5734574890136719
25300,-0.4357438659667969,10.16491195678711,-0.5647755432128907
25367,-0.8373587036132812,9.941426696777345,-0.6857240295410156
25438,-0.7908055114746094,9.607171783447265,-0.17393829345703127
25501,-0.6559359741210938,9.130862274169923,-0.07918533325195314
25567,-0.547261962890625,9.049880676269531,1.0340496826171877
25638,-0.7120692443847657,9.871522064208985,1.6666342163085939
25700,-1.0370434570312501,10.570867767333985,1.6853453063964845
25767,-0.8509803771972657,10.091414794921876,0.3477268981933594
25836,-0.6397695922851563,10.441836090087891,-0.59156982421875
25900,-0.48993118286132814,8.767118682861328,-1.015338592529297
25967,-0.37661682128906254,8.859326934814453,-1.139729919433594
26041,-0.33784744262695315,10.120753784179689,0.3499722290039063
26101,-0.4321513366699219,9.3836865234375,0.17738113403320313
26167,-0.20432510375976565,9.329199829101563,-0.7611671447753907
26237,-0.6527925109863282,9.50583251953125,-0.10912307739257814
26300,-0.37556900024414064,10.368039550781251,0.19669097900390625
26367,-0.13486953735351564,9.47514633178711,-0.09235794067382813
26437,-0.4692741394042969,9.961934051513673,-0.7833210754394532
26500,-0.5718109130859376,10.665620727539062,-0.15283218383789063
26567,-0.19788848876953127,9.857750701904298,-0.6249504089355469
26638,-0.34742752075195316,9.417815551757814,-0.6984475708007812
26700,-0.5716612243652344,10.046657867431641,-0.6523434448242188
26767,-0.75443115234375,9.227261810302736,-0.47017227172851567
26840,-0.7226971435546875,9.628128204345703,-0.4454736328125
26900,-1.274300079345703,10.669662322998047,-0.25656646728515625
26967,-1.0144404602050783,9.624984741210938,-0.7554789733886719
27037,-1.299148406982422,9.920320587158203,-0.6060896301269532
27100,-1.2558883666992189,10.505902862548828,-0.4650828552246094
27167,-1.050066375732422,9.581575012207031,-0.7445516967773438
27237,-1.0002200317382812,9.137598266601563,-0.3592529296875
27301,-0.5324427795410156,8.941356353759765,1.0169851684570312
27367,-0.9618997192382813,10.266849975585938,2.0645068359375003
27438,-0.7801776123046875,10.581046600341798,2.0338206481933594
27500,-1.68369873046875,9.791588287353516,0.9662406921386719
27567,-1.9562818908691406,9.89277786254883,-0.15657440185546875
27637,-1.8546432495117189,9.684860229492188,-0.47436355590820317
27700,-1.6208294677734376,9.638756103515625,-0.4727169799804688
27767,-1.0590476989746094,9.692344665527344,0.2423460388183594
27842,-1.1255094909667969,10.042466583251954,0.3638932800292969
27900,-1.3928535461425782,9.663155364990235,-0.11061996459960938
27967,-1.3808784484863281,9.913135528564453,-0.1770817565917969
28037,-1.4220428466796875,9.680968322753907,-0.09175918579101563
28100,-1.9124230957031252,9.599986724853515,0.041613464355468754
28167,-1.8456619262695313,11.221714324951172,0.9337582397460938
28237,-2.085762634277344,10.518177337646485,1.3714480590820313
28300,-1.8637742614746096,10.567424926757813,0.2842588806152344
28367,-2.4135809326171875,9.477092285156251,0.29069549560546876
28438,-2.4674688720703126,9.185947723388672,-0.010328521728515625
28500,-1.4781761169433594,9.610015869140625,-0.36404296875000003
28567,-1.5738272094726564,9.158704376220703,-1.056353302001953
28638,-0.5420228576660157,9.602980499267579,-0.5938151550292969
28700,-0.5414241027832032,10.483449554443359,0.06481521606445313
28767,-1.9734960937500001,9.936786346435547,0.6110293579101563
28840,-2.1032762145996093,9.446705474853516,0.1335223388671875
28900,-2.0677999877929687,8.45396987915039,0.42691223144531254
28967,-0.57240966796875,10.053992614746095,0.9258247375488282
29037,-0.7845185852050781,9.37365737915039,1.3283377075195313
29100,-0.5445675659179687,9.06709487915039,1.2852273559570313
29167,-0.8771759033203126,9.168284454345704,2.259700927734375
29237,-0.7952961730957032,8.90752670288086,1.8830841064453125
29300,-0.9874964904785156,10.195448455810547,2.374512176513672
29367,-0.6608757019042969,10.204579467773438,1.6974700927734376
29437,-0.5989045715332032,9.734706573486328,1.4853611755371094
29500,-0.28156448364257813,9.680519256591797,1.6292120361328126
29567,0.149688720703125,9.596394195556641,1.1347901916503906
29638,-0.06810836791992188,9.168134765625,1.6133450317382814
29701,-0.5757028198242188,9.113797760009765,1.1564950561523437
29767,-0.4237687683105469,10.160870361328126,1.5968792724609375
29840,-0.7729925537109376,9.629026336669922,1.7248631286621094
29900,-0.21285736083984377,9.114845581054688,1.4950909423828125
29968,-0.1728904724121094,9.529633026123047,1.5245796203613282
30042,-0.7273374938964844,9.706415405273438,1.4970368957519533
30100,-0.6429130554199219,9.518556060791017,1.4510824584960937
30168,-0.5757028198242188,9.554331665039063,1.5694862365722657
30251,-0.8565188598632812,9.888436889648437,1.4965878295898438
30301,-0.939895477294922,10.117610321044923,1.730401611328125
30367,-0.31225067138671875,9.336384887695313,0.9063652038574219
30442,-1.0377919006347658,9.506730651855468,1.4133609008789063
30507,-0.43304946899414065,10.084229736328126,0.9945318603515626
30567,-0.7773335266113282,8.756939849853516,0.5346881103515625
30642,-0.9343569946289063,9.72707244873047,0.5905220031738282
30715,-0.9720785522460939,9.87990463256836,1.1576925659179689
30768,-0.5932164001464844,9.483977966308593,0.8402027893066407
30841,-0.4183799743652344,9.169631652832031,-0.7979905700683594
30900,-0.6480024719238282,8.83807113647461,-0.17468673706054688
30967,-0.9574090576171875,10.345885620117189,0.9678872680664063
31043,-1.1687695312500002,10.115814056396484,0.5105882263183594
31101,-1.2208612060546875,9.637857971191407,-0.43828857421875
31167,-1.19990478515625,10.380164337158204,-0.07439529418945313
31244,-1.0663824462890625,8.656349029541015,1.635498962402344
31301,-0.5451663208007813,10.773995361328126,1.1922706604003908
31367,-0.4194277954101563,10.537636871337892,1.4075230407714845
31443,-0.6614744567871094,10.029293975830079,1.9532881164550782
31500,-1.1910731506347656,9.652377777099609,1.5253280639648439
31567,-0.5643264770507813,9.589957580566407,1.5760725402832032
31639,-0.7990383911132813,9.526040496826173,1.7456698608398438
31700,-0.7767347717285157,8.951984252929687,1.4031820678710938
31768,-0.7363188171386719,9.109905853271485,1.8510507202148438
31839,-0.1375639343261719,9.607171783447265,2.7574159240722658
31900,-0.6518943786621094,9.824669494628907,1.474134521484375
31967,-0.8292755126953125,9.625882873535156,1.7006135559082032
32042,-0.314945068359375,8.610693969726563,1.586700439453125
32101,-0.8945397949218751,9.294621734619142,1.7155824279785157
32167,-0.6092330932617188,9.194629669189453,1.4705419921875
32237,-1.0870394897460938,9.380543060302735,1.798509979248047
32300,-0.9138496398925782,9.275910644531251,1.8989511108398438
32368,-1.1338920593261719,9.120833129882813,1.834435272216797
32440,-0.47750701904296877,9.310039672851563,1.216520233154297
32500,-0.8479866027832031,8.838819580078125,1.4913487243652344
32567,-0.8478369140625001,8.951535186767579,1.803300018310547
32637,-0.6875202941894532,8.660540313720704,1.4623091125488281
32701,-0.7502398681640625,9.691895599365235,1.5444882202148438
32768,-0.39667510986328125,8.931177520751953,1.2039463806152344
32840,-0.24384292602539065,9.238937530517578,1.7043557739257813
32901,-0.5918692016601563,9.63321762084961,1.6736695861816406
32967,0.19773880004882813,9.419312438964845,1.3762380981445312
33037,-0.686173095703125,9.675729217529298,2.2936802673339844
33100,-0.36060012817382814,9.93828323364258,2.2510189819335937
33167,0.040415954589843754,9.529183959960937,1.673819274902344
33241,-0.3926335144042969,10.391241302490235,1.6690292358398438
33301,-0.2944377136230469,9.765542449951173,1.6293617248535157
33367,-0.5643264770507813,9.647737426757812,1.9513421630859376
33437,-0.15777191162109375,9.606722717285157,1.8443147277832033
33500,0.09190887451171875,9.272168426513673,1.0472222900390626
33567,-0.04685256958007813,10.164762268066406,1.5666421508789063
33642,-0.4495152282714844,9.491013336181641,1.8434165954589845
33700,-0.47990203857421876,9.48667236328125,2.1700373840332032
33768,-0.610580291748047,9.37695053100586,1.4513818359375001
33838,-0.21555175781250002,9.67827392578125,1.5926879882812501
33900,-0.7960446166992188,9.629475402832032,1.4587165832519533
33967,-0.8535250854492188,9.046587524414063,1.7061520385742188
34036,-0.2381547546386719,10.33495834350586,1.8326390075683594
34101,-0.7930508422851563,9.952952728271486,1.839375
34167,-0.47720764160156254,9.333690490722656,1.6685801696777345
34241,-1.3259426879882814,9.532028045654297,1.2353810119628907
34301,-1.0150392150878906,8.50276840209961,1.797312469482422
34367,-1.3061837768554687,10.174342346191407,1.666783905029297
34437,-1.3061837768554687,10.036778411865235,0.9940827941894532
34501,-0.9900411987304688,9.81284408569336,1.248852996826172
34567,-0.338895263671875,10.572963409423828,1.6868421936035156
34642,-0.22573059082031252,10.797346801757813,1.7211209106445313
34714,-1.0111473083496094,10.193801879882812,0.95082275390625
34767,-1.1391311645507813,9.475745086669923,0.947230224609375
34838,-0.3519181823730469,9.30509994506836,1.0367440795898437
34901,-0.7370672607421875,9.85550537109375,1.2997471618652345
34968,-0.6096821594238282,9.746981048583985,0.7899073791503907
35040,-0.276624755859375,9.849218444824219,0.6773414611816406
35100,-1.4618600463867188,9.095984802246095,0.6667135620117188
35167,-1.0913804626464845,10.24304946899414,1.2855267333984375
35243,-1.6754658508300782,9.366023254394532,0.6188131713867188
35300,-0.6836283874511719,9.520502014160156,0.488583984375
35367,-2.3237677001953125,9.186396789550782,0.6821315002441407
35440,-0.24698638916015625,9.637708282470703,1.4268328857421875
35500,-0.7370672607421875,10.275531921386719,0.7453001403808595
35567,-0.7638615417480469,10.324330444335938,0.6396199035644532
35645,-0.2731819152832031,9.784403228759766,0.5525010681152344
35707,-1.7765057373046875,9.094936981201172,1.0713221740722656
35767,-0.6001020812988281,10.038275299072266,0.4532574462890625
35842,-1.1632310485839845,9.711205444335938,0.5541476440429688
35951,-1.2036470031738282,9.910441131591798,0.5761518859863282
35971,-1.1563453674316406,9.57004898071289,0.8060737609863282
36044,-1.0942245483398438,9.863887939453125,0.7976911926269532
36104,-0.8949888610839845,9.7716796875,0.9743238830566406
36171,-0.4902305603027344,9.712852020263673,0.7673043823242188
36249,-0.4628375244140625,9.30554901123047,0.801134033203125
36306,-1.212927703857422,10.40007293701172,0.7408094787597657
36367,-0.8732839965820313,9.90340576171875,0.7566764831542969
36450,-0.7629634094238281,9.34102523803711,0.18142272949218752
36502,-0.564027099609375,8.879534912109376,0.3650907897949219
36567,-1.0350975036621095,10.01207977294922,0.4525090026855469
36644,-0.5833369445800781,10.061027984619141,0.5104385375976562
36702,-0.690963134765625,10.226134643554689,0.45640090942382816
36767,-0.6884184265136719,9.430539093017579,0.7982899475097657
36838,-0.5125341796875,10.017318878173828,0.25626708984375
36901,-0.4746629333496094,10.910361785888673,0.9827064514160156
36967,-1.140029296875,10.343939666748048,0.9186396789550781
37038,-0.5572911071777344,9.600735168457032,0.7798782348632813
37100,-0.7014413452148438,10.659333801269533,0.5960604858398438
37167,-1.084794158935547,9.301357727050782,0.6072871398925782
37237,-1.13284423828125,10.420879669189453,1.293160858154297
37300,-1.0154882812500001,9.75581268310547,1.0542576599121094
37368,-1.2310400390625,10.775492248535157,1.923050994873047
37439,-1.1211685180664064,8.638087005615235,1.1937675476074219
37501,-0.33066238403320314,9.726773071289063,1.000968475341797
37567,-0.2597099304199219,9.448501739501953,1.16158447265625
37637,-0.5239105224609375,9.266031188964844,1.46335693359375
37700,-0.4834945678710938,10.16970199584961,1.2096345520019531
37767,-0.3296145629882813,9.354048156738282,1.234333190917969
37839,-0.7092251586914062,9.804012451171875,1.4271322631835939
37901,-0.10942245483398438,9.603279876708985,1.1554472351074219
37967,-0.044008483886718755,9.696236572265626,0.8023315429687501
38037,-0.8750802612304688,9.206006011962891,1.1454180908203127
38101,-0.6177653503417969,11.898606719970704,1.0445278930664064
38168,-0.5429209899902344,10.294991455078126,2.2107527160644533
38239,-0.08562194824218751,9.891280975341797,1.1666738891601562
38300,-0.6463558959960938,10.198292541503907,1.1213182067871095
38368,-0.73527099609375,8.33032699584961,-0.15328125
38437,-0.7554789733886719,8.9142626953125,0.7590715026855469
38501,-0.9511221313476563,7.284302215576172,0.04101470947265625
38568,-0.269439697265625,9.78649887084961,1.8241067504882813
38639,-2.349065093994141,10.383756866455078,2.5634193420410156
38700,-1.665586395263672,11.479927368164063,1.5633489990234375
38767,-1.2760963439941406,7.424261169433594,0.04805007934570313
38841,-1.43701171875,7.857160949707032,-0.3261717224121094
38901,-0.609532470703125,8.900790710449218,0.9880952453613282
38967,-1.4720388793945314,10.221943359375,0.6785389709472657
39038,-1.1288026428222657,8.314310302734375,1.6784596252441406
39101,-0.6063890075683595,11.089239807128907,2.1847068786621096
39168,1.2889695739746094,9.521250457763673,0.41388931274414065
39239,-1.440454559326172,10.066566467285156,0.09894424438476564
39301,-1.1368858337402343,10.854228515625001,1.315913543701172
39367,-0.2817141723632813,9.811945953369142,0.2650987243652344
39437,0.19788848876953127,8.564589843750001,0.0143701171875
39500,-0.4409829711914063,7.741301879882813,0.002245330810546875
39568,-0.11930191040039063,9.71943832397461,0.09355545043945312
39640,-0.6366261291503906,10.43794418334961,1.1225157165527344
39702,-0.4290078735351563,8.625962219238282,0.08427474975585938
39769,-0.255069580078125,6.105054473876954,-0.670455780029297
39843,0.10044113159179688,9.351952514648438,-0.15567626953125
39900,-0.11585906982421876,11.737092590332033,0.9532177734375
39967,-1.5066169738769533,8.279881896972658,-1.4730867004394532
40038,1.1960128784179689,9.531878356933595,0.3263214111328125
40100,-0.3770658874511719,11.400143280029297,1.2507989501953125
40167,-0.38859191894531253,12.423714752197267,2.8003765869140627
40239,-3.4151481628417972,10.72774154663086,1.5667918395996094
40300,0.8499325561523438,8.377478942871095,0.3882925415039063
40367,-0.5710624694824219,9.042695617675781,1.361418914794922
40437,-0.2507286071777344,9.500892791748047,1.057401123046875
40500,-1.4377601623535157,9.524842987060547,1.1883787536621095
40567,-1.6802558898925781,8.48794921875,0.7213499450683594
40639,-1.7042060852050782,8.142916717529298,0.6421646118164063
40700,-2.2088067626953127,9.548643493652344,2.1311183166503906
40768,-1.5895445251464844,9.75970458984375,2.1320164489746096
40840,-0.681383056640625,9.834848327636719,2.660717010498047
40901,-1.9716998291015626,8.908275146484375,0.6463558959960938
40967,-2.059866485595703,8.953780517578126,0.7670050048828125
41040,-2.0468435668945313,9.603429565429687,1.6890875244140626
41101,-2.647843780517578,10.372380523681642,1.4269825744628908
41168,-1.063089294433594,10.199789428710938,2.1570144653320313
41238,-2.4745042419433596,10.754236450195313,2.113305358886719
41300,-1.357676696777344,7.8921881103515625,1.665436706542969
41367,-3.2121702575683595,8.641380157470703,1.6157400512695312
41440,-1.6543597412109377,10.642718353271485,0.6234535217285156
41500,-2.1709355163574218,7.747439117431641,0.67300048828125
41567,-1.2051438903808593,8.680149536132813,0.9972262573242188
41638,-1.7191749572753907,9.170380096435547,1.4166540527343752
41701,-0.51492919921875,10.11611343383789,0.386795654296875
41768,-0.8057743835449219,7.877518615722656,2.2897883605957032
41839,-0.33545242309570317,10.57925033569336,1.6741186523437501
41902,-0.21031265258789064,9.819280700683594,1.1177256774902344
41968,-0.18007553100585938,9.849517822265625,1.5718812561035158
42039,0.7265890502929688,9.964927825927735,2.29921875
42100,-0.48514114379882817,9.657766571044922,1.8377284240722658
42167,-0.21195922851562501,8.734486541748048,1.9061361694335939
42241,-1.3036390686035157,8.22779022216797,1.906285858154297
42301,-0.5986051940917969,8.29006072998047,2.420017547607422
42368,-1.5232324218750002,9.476343841552735,3.3088691711425784
42437,-0.33635055541992187,9.178014221191408,2.908601531982422
42501,-0.8896000671386719,8.840765533447266,2.682421875
42567,0.4167333984375,10.12898666381836,2.3345452880859376
42640,0.5195695495605469,9.128766632080078,2.1643492126464845
42700,-0.6605763244628906,8.754844207763671,2.512225799560547
42768,1.1599378967285157,9.320667572021485,2.652184753417969
42838,0.30865814208984377,10.181377716064453,2.932551727294922
42901,0.21824615478515627,10.082134094238281,3.609144744873047
42967,-0.0496966552734375,10.57251434326172,3.251089324951172
43040,0.17064514160156252,10.322833557128908,2.925216979980469
43100,-0.0999920654296875,8.599916381835937,3.2768357849121097
43167,0.5487588500976562,10.068512420654297,3.0891261291503906
43237,0.4632865905761719,10.031838684082032,3.697461090087891
43301,-0.154478759765625,9.263935546875,3.988605651855469
43367,0.04086502075195313,9.88514373779297,3.606600036621094
43441,0.2136058044433594,9.843679962158204,2.3366409301757813
43501,-0.305364990234375,9.486522674560547,2.4924668884277343
43568,-0.4017645263671875,8.659492492675781,1.8447637939453125
43638,-0.7571255493164063,8.939709777832032,1.7308506774902344
43701,-0.7183561706542969,9.89098159790039,2.0016375732421876
43767,-0.79754150390625,9.375453643798828,1.8024018859863282
43837,-1.1988569641113282,9.377698974609375,1.2927117919921876
43918,-1.06099365234375,9.826465759277344,2.1549188232421876
43970,-1.0789562988281252,9.537566528320314,1.7124389648437501
44036,-1.5513739013671877,10.055639190673828,2.2561083984375
44100,-1.07296875,10.025701446533203,2.328857116699219
44166,-1.0121951293945313,8.637937316894531,1.5203883361816406
44260,-1.1216175842285157,8.986712036132813,1.3689033508300783
44315,-1.086141357421875,9.741891632080078,1.80344970703125
44367,-0.19040405273437502,9.986333312988283,1.7946180725097658
44442,-0.4221221923828125,10.286159820556641,1.8077906799316408
44501,-0.21929397583007815,9.887838134765625,1.8935623168945312
44568,0.2920426940917969,8.9286328125,1.500330047607422
44641,0.4105961608886719,9.309141540527344,1.400936737060547
44719,0.6099815368652344,10.149643707275391,1.6622932434082032
44781,-0.04026626586914063,9.649833068847657,1.51365234375
44841,1.3566288757324219,9.686357116699218,1.4747332763671877
44903,0.6339317321777344,8.886719970703126,1.3859678649902345
44984,0.62989013671875,9.389973449707032,1.1653266906738282
45041,0.28770172119140625,9.367220764160157,1.274150390625
45100,0.8807684326171875,10.134076080322266,1.5328125000000001
45167,0.1790277099609375,9.365574188232422,1.4419514465332033
45240,-0.042361907958984375,9.680519256591797,1.3910572814941407
45301,0.3107537841796875,9.979297943115235,1.4419514465332033
45368,-1.0383906555175781,10.10788055419922,1.4290782165527345
45440,0.18965560913085938,9.033564605712892,1.6218772888183595
45501,0.21689895629882813,9.282197570800781,1.2584330749511718
45567,-0.0031434631347656253,11.376941528320312,2.731370086669922
45636,0.45655059814453125,11.24940673828125,2.74229736328125
45704,-0.5417234802246094,10.343490600585938,2.904859313964844
45767,0.03906875610351563,9.011710052490235,2.0543280029296875
45840,-1.3947994995117188,8.111631774902344,1.5152989196777344
45901,-0.0700543212890625,9.30030990600586,0.9741741943359375
45967,0.3227288818359375,8.795858917236329,1.8139279174804688
46039,-0.062120819091796876,10.768307189941407,1.7271084594726562
46101,0.18052459716796876,10.613978118896485,1.8206639099121094
46167,-0.8205935668945313,8.998387756347658,1.6802558898925781
46240,0.2471360778808594,8.670569458007813,0.8750802612304688
46300,-0.34727783203125,8.752898254394532,0.6939569091796876
46368,-0.38739440917968754,9.478140106201172,1.3995895385742188
46444,-0.45235931396484375,9.317973175048829,1.6733702087402345
46502,-0.26839187622070315,8.759634246826172,1.3555810546875
46568,-0.5222639465332032,9.328152008056641,1.8309924316406252
46642,-0.6451583862304687,8.859626312255859,1.5438894653320314
46700,-0.42571472167968755,9.733209686279297,2.109563140869141
46767,-0.6366261291503906,9.279203796386719,1.4659016418457032
46838,0.4272116088867188,9.650880889892578,1.609303436279297
46901,-0.7450007629394532,9.304351501464843,1.563798065185547
46968,0.5689668273925782,8.925489349365234,1.1572434997558594
47039,-0.12843292236328124,9.163943481445314,1.201102294921875
47101,-0.02604583740234375,8.98611328125,2.3743624877929688
47167,0.5135820007324219,9.60687240600586,2.3939717102050784
47241,-0.12109817504882812,9.659712524414063,2.2408401489257814
47301,-0.08173004150390625,9.289232940673829,2.3261627197265624
47368,-0.9919871520996094,9.93214599609375,2.4527993774414063
47437,-0.6400689697265626,9.671837310791016,2.579136657714844
47500,-0.4824467468261719,10.04231689453125,1.8589842224121094
47567,0.12633728027343752,9.061855773925782,1.9520906066894532
47641,-0.5596861267089844,9.831255798339845,2.0550764465332034
47701,-0.03203338623046875,9.395960998535157,1.5880476379394532
47767,-0.7203021240234375,9.185049591064454,1.2195140075683595
47837,-0.06780899047851563,10.28855484008789,1.7274078369140626
47901,-0.429906005859375,10.072853393554688,2.056124267578125
47967,0.05074447631835938,9.849517822265625,1.9016455078125
48041,-0.5351371765136719,9.70027816772461,1.986668701171875
48100,-0.29144393920898437,9.574539642333985,1.4747332763671877
48167,-1.3391152954101564,9.574839019775391,1.580413513183594
48238,0.7888595581054688,9.327403564453126,1.7474661254882813
48301,-0.8601113891601563,9.938432922363281,1.7250128173828125
48368,-0.46792694091796877,10.1309326171875,2.1559666442871093
48441,-0.39353164672851565,9.998458099365235,2.0444485473632814
48500,0.2782713317871094,9.303603057861329,1.3971945190429689
48567,-0.7887098693847656,10.019414520263672,1.9209553527832033
48637,-0.15896942138671877,10.034533081054688,2.0173548889160156
48701,-0.22707778930664063,8.670569458007813,1.367406463623047
48767,-0.23785537719726563,9.210197296142578,1.325792999267578
48839,0.3209326171875,9.302854614257813,1.3850697326660157
48901,-0.5272036743164062,9.744735717773438,1.9209553527832033
48967,0.041912841796875,9.997859344482423,2.0204983520507813
49037,-0.33784744262695315,9.727970581054688,1.750609588623047
49101,-0.049846343994140625,9.146878967285156,1.4329701232910157
49168,-0.4805007934570313,9.14987274169922,1.679956512451172
49239,-0.3487747192382813,8.769513702392578,1.3503419494628908
49301,-0.2424957275390625,9.518556060791017,1.4233900451660157
49367,-0.7385641479492188,9.839338989257813,1.6627423095703127
49437,0.6810836791992188,9.304950256347658,1.354233856201172
49501,-0.45116180419921875,9.113648071289063,1.7568965148925781
49568,0.10163864135742189,9.851912841796876,1.4166540527343752
49639,-0.85502197265625,9.571096801757813,2.191293182373047
49701,0.0580792236328125,9.76584182739258,1.3223501586914064
49768,-0.6180647277832032,10.058782653808594,1.593735809326172
49840,-0.3112028503417969,8.829688568115234,1.5253280639648439
49900,-0.6716532897949219,10.064171447753907,2.621947631835938
49968,-0.22483245849609376,8.722062377929689,1.5449372863769533
50041,-0.9532177734375,8.495733032226562,-1.0186317443847657
50100,0.06601272583007813,8.88028335571289,0.20252883911132813
50167,-0.6914122009277344,11.461216278076172,0.4098477172851563
50237,-0.8927435302734376,10.250833282470703,0.3305126953125
50301,-1.2012519836425781,9.35255126953125,-1.098116455078125
50368,0.08517288208007813,10.688223724365235,0.26958938598632814
50438,-0.7164102172851563,11.121722259521485,0.49187713623046875
50500,-1.2862751770019532,9.631121978759767,-0.5060975646972656
50568,-0.937500457763672,9.777218170166016,-0.021704864501953126
50638,-0.1525328063964844,8.990304565429687,0.05882766723632813
50704,-0.8351133728027345,9.497899017333985,-0.30072463989257814
50768,-1.6292120361328126,10.822494506835938,-0.2878514099121094
50839,-0.32407608032226565,10.710677032470704,-0.3597019958496094
50901,-0.9168434143066406,10.249486083984376,-0.13696517944335937
50967,-0.3394940185546875,8.974886627197266,-0.5074447631835938
51043,-0.1866618347167969,8.183632049560547,-1.0588980102539063
51103,-0.46538223266601564,10.899883575439453,-0.3480262756347656
51168,-0.8518785095214845,11.304043121337891,-0.11211685180664063
51238,-0.2740800476074219,10.472671966552735,-0.05119354248046875
51301,-0.0005987548828125,10.937006378173828,-0.03742218017578125
51367,-0.6008505249023438,9.9010107421875,0.2543211364746094
51437,-0.6456074523925781,9.639654235839844,0.20327728271484377
51501,-0.2755769348144531,9.512568511962892,0.41613464355468754
51568,-0.7753875732421875,9.407187652587892,0.17064514160156252
51639,-1.1181747436523437,9.343270568847657,0.19579284667968752
51701,-0.5782475280761719,10.656489715576173,0.3459306335449219
51766,-0.16660354614257813,10.306816864013673,-0.40430923461914064
51839,0.20462448120117188,10.849139099121095,0.7179071044921875
51901,-1.4666500854492188,11.024873657226562,0.20612136840820314
51968,-0.4129911804199219,9.910890197753906,-0.028590545654296876
52037,-0.9324110412597657,9.833501129150392,-0.2567161560058594
52101,-1.0891351318359375,9.151219940185547,-0.09565109252929688
52168,-1.1455677795410157,9.342372436523439,0.6863227844238282
52242,-0.04101470947265625,9.919272766113282,0.07514373779296875
52301,-1.2618759155273438,9.929451599121094,-0.10014175415039063
52368,-0.29728179931640625,10.28466293334961,0.18576370239257814
52438,-0.641865234375,10.073302459716798,0.06361770629882812
52501,-0.7668553161621094,10.332862701416015,-0.39817199707031253
52568,-0.85502197265625,9.675130462646484,0.3608995056152344
52639,-1.1776011657714844,9.801168365478516,-1.085991668701172
52700,-0.9859996032714844,8.844657440185546,0.045954437255859376
52768,-0.42840911865234377,10.969189453125,0.5577401733398438
52841,-0.015417938232421876,11.664343872070313,1.7558486938476563
52901,-1.212927703857422,9.436077575683594,1.026116180419922
52967,-0.7791297912597657,9.367969207763672,-0.22662872314453125
53037,-1.7967137145996095,10.538684692382812,-0.20597167968750002
53135,-1.0005194091796876,8.877439270019531,-0.4535568237304688
53168,-1.5117063903808594,10.07779312133789,0.23396347045898438
53239,-1.0277627563476563,9.072333984375,0.10568023681640626
53300,-0.8626560974121095,8.574918365478515,0.09086105346679688
53367,-2.0651055908203126,11.529624023437501,0.7527845764160157
53437,-1.1895762634277345,11.832743682861329,1.1660751342773439
53501,-1.5359559631347657,9.859097900390626,-0.029788055419921876
53567,-1.2258009338378908,8.703800354003906,-0.47376480102539065
53639,-1.9408639526367188,10.187514953613281,-0.1525328063964844
53701,-1.9001486206054687,10.27702880859375,0.132923583984375
53768,-1.1632310485839845,9.976004791259767,-0.18681152343750002
53839,-1.4702426147460939,9.545350341796876,0.8487350463867188
53900,-0.5453160095214844,11.370504913330079,0.7885601806640625
53968,-0.5287005615234375,11.256142730712892,1.8109341430664063
54038,-1.9776873779296875,10.391091613769532,0.3782633972167969
54101,0.4044589233398438,9.44925018310547,-1.015338592529297
54167,-1.1651770019531251,9.62992446899414,-0.11541000366210938
54239,-1.3525872802734376,10.099198608398439,1.535357208251953
54302,-0.14654525756835937,9.188791809082032,1.8733543395996095
54368,-0.530496826171875,8.787925415039062,0.7246430969238281
54438,0.2517764282226563,8.901688842773439,1.0672805786132813
54501,-0.04655319213867188,11.029514007568359,1.8770965576171876
54568,0.10074050903320313,10.511441345214845,2.0457957458496097
54640,-0.1279838562011719,8.30727493286133,1.6817527770996095
54715,-0.21195922851562501,10.379715270996094,1.8278489685058594
54767,0.08068222045898438,9.535770263671875,1.4421011352539064
54839,0.3610491943359375,9.799222412109376,1.9977456665039064
54901,0.8414002990722657,8.898994445800781,1.2151730346679688
54967,0.7810757446289063,9.79802490234375,1.7890795898437502
55040,0.24593856811523437,9.873917083740235,0.8454418945312501
55100,0.286204833984375,11.034004669189454,1.2978012084960937
55167,-0.4005670166015625,10.806926879882813,0.5917195129394531
55238,-0.07888595581054687,7.777676239013672,0.3429368591308594
55301,0.6327342224121094,8.992100830078126,1.0156379699707032
55368,0.9264234924316407,10.332713012695313,2.019151153564453
55439,0.6423143005371094,9.81718505859375,1.1108399963378908
55500,0.6614744567871094,10.170300750732423,1.802102508544922
55568,1.4150074768066407,9.725425872802735,1.910028076171875
55638,0.22348526000976562,9.842632141113281,1.6233741760253908
55701,0.1550775146484375,9.72617431640625,1.3235476684570313
55767,0.0916094970703125,10.778486022949219,2.0505857849121094
55838,0.47915359497070314,9.875264282226563,2.5143214416503907
55901,0.24893234252929688,10.544971618652344,1.9211050415039064
55968,0.37437149047851564,8.255183258056642,1.1838880920410157
56041,0.7033872985839844,10.246791687011719,1.0773097229003907
56100,-0.267044677734375,9.927206268310547,0.7590715026855469
56168,-0.49951126098632814,10.989098052978516,0.7036866760253907
56238,0.6641688537597656,10.303972778320313,0.9669891357421876
56301,-0.5511538696289062,11.152408447265625,0.6855743408203125
56368,-0.11181747436523438,10.640173645019532,0.35521133422851564
56439,1.6714242553710938,10.216704254150391,0.46178970336914066
56501,0.3457809448242188,9.394164733886718,0.29368927001953127
56567,0.31374755859375003,9.690847778320313,0.5884263610839844
56637,-2.744243316650391,14.059513092041016,1.6610957336425782
56716,0.7879614257812501,10.738968200683594,1.6901353454589845
56768,-2.1011805725097656,12.827125854492188,0.737666015625
56838,-3.573369140625,16.92260925292969,5.999374237060548
56901,-0.5111869812011719,10.149494018554687,0.036074981689453126
56967,0.2597099304199219,10.911259918212892,0.8581654357910157
57042,0.5158273315429688,10.745704193115236,0.9312135314941407
57102,0.9568103027343751,9.153165893554688,-0.9319619750976563
57167,0.5418731689453126,8.915310516357422,-0.5240602111816407
57238,0.25462051391601564,10.427465972900391,0.40131546020507813
57300,-0.016615447998046876,11.690838775634766,1.3129197692871095
57367,-1.2591815185546875,10.733878784179687,-0.5523513793945313
57437,-1.0041119384765627,9.593101043701173,-0.6629713439941407
57500,0.7249424743652344,10.3129541015625,0.4635859680175782
57568,-0.7753875732421875,10.231822814941406,1.1388317871093752
57639,-0.5604345703125,8.369246063232422,0.2219883728027344
57701,-1.0303074645996095,10.15533187866211,0.025297393798828127
57767,-0.15223342895507813,11.926448822021484,1.3275892639160156
57839,0.6712042236328125,11.579170989990235,1.8091378784179688
57900,-2.083367614746094,11.157647552490236,1.0973680114746094
57968,-0.8839118957519532,10.597212982177735,-0.06391708374023437
58037,-1.5365547180175783,10.167606353759766,0.7887098693847656
58101,-0.05179229736328125,8.239615631103517,0.06915618896484375
58168,-2.015558624267578,10.707832946777344,1.004561004638672
58238,-1.1665242004394532,9.037157135009766,0.7737409973144531
58300,-1.5253280639648439,10.203531646728516,-0.30491592407226564
58368,-1.512454833984375,10.14485366821289,0.39577697753906255
58437,-0.629740447998047,10.230625305175781,0.8196954345703126
58500,-1.6839981079101562,9.799821166992189,0.7417076110839844
58568,-1.8904188537597657,11.305989074707032,0.7623646545410157
58642,-0.623902587890625,11.371552734375001,0.738713836669922
58700,-1.8317408752441406,9.250912628173829,0.13127700805664064
58768,-1.3587245178222658,8.923393707275391,1.4531781005859377
58838,-0.3330574035644531,9.028026123046875,0.44113265991210937
58901,-2.0276834106445314,9.33384017944336,-0.37437149047851564
58968,-2.1225860595703128,9.858648834228516,0.1866618347167969
59038,-0.8030799865722656,9.424551544189454,0.23740631103515628
59101,-1.7492623901367188,9.060209197998047,0.5447172546386719
59168,-1.0675799560546875,9.513167266845704,0.5739065551757813
59237,-1.6889378356933595,9.303153991699219,0.3887416076660156
59303,-1.4495855712890626,9.951455841064453,0.9029223632812501
59368,-0.7562274169921875,10.472971343994141,1.1174263000488283
59439,-2.139650573730469,9.421408081054688,0.8264314270019532
59501,-1.4766792297363283,9.607171783447265,0.7313790893554688
59568,-1.7293537902832032,9.670340423583985,0.05478607177734375
59642,-1.0151889038085937,8.005502471923828,0.42167312622070313
59701,-2.57943603515625,11.955787811279297,1.222657470703125
59768,-1.131646728515625,11.176807708740235,1.9586769104003907
59839,-2.3173310852050784,10.415041809082032,0.28336074829101565
59901,-1.7450711059570314,10.477462005615235,1.1512559509277345
59967,-1.1337423706054688,9.776469726562501,0.07454498291015625
60037,-1.2503498840332032,9.073980560302735,0.49576904296875
60101,-0.7873626708984376,10.024503936767578,0.29713211059570316
60168,-0.8384065246582032,10.174342346191407,0.7439529418945313
60240,-0.28695327758789063,8.938961334228516,0.03263214111328125
60300,-0.12409194946289064,9.466913452148438,1.0873388671875
60368,-0.10448272705078125,10.115963745117188,0.23965164184570314
60437,-1.081201629638672,9.577832794189453,0.6990463256835938
60501,-0.6782395935058594,10.366842041015625,0.7809260559082032
60567,-1.387614440917969,9.076375579833984,0.6409671020507813
60636,-0.5589376831054688,9.998757476806642,0.3674858093261719
60704,-1.1753558349609377,9.071435852050781,0.670455780029297
60767,-0.9202862548828126,9.074878692626953,-0.3704795837402344
60835,-0.7786807250976563,9.082662506103516,0.039517822265625
60901,-0.9481283569335938,8.857530670166016,0.30716125488281254
60968,-1.3522879028320314,11.772718505859375,0.29069549560546876
61034,-0.9958790588378906,10.188263397216797,0.6821315002441407
61101,-0.5053491210937501,10.63717987060547,-0.08068222045898438
61167,-0.23096969604492187,10.59601547241211,0.33185989379882813
61234,-1.533710632324219,10.468330993652344,1.2888198852539063
61301,-1.1252101135253907,10.653046875000001,0.5478607177734375
61367,-0.9259744262695313,10.173294525146485,0.5013075256347657
61435,-0.5135820007324219,10.144105224609376,0.012723541259765625
61501,-0.9361532592773438,9.19403091430664,0.632135467529297
61568,0.7746391296386719,11.07262435913086,0.7147636413574219
61634,-1.495540008544922,9.917177124023437,0.6147715759277345
61701,0.2507286071777344,9.014554138183595,-0.09864486694335937
61768,-1.2485536193847657,9.613309020996095,0.24204666137695313
61835,-0.49951126098632814,9.554481353759765,1.6494200134277344
61901,-1.4678475952148438,11.07022933959961,1.017733612060547
61967,-0.7445516967773438,10.81635726928711,1.2028985595703126
62035,-1.7660275268554688,10.151439971923828,0.2034269714355469
62101,-0.21540206909179688,10.460547180175782,0.7610174560546875
62168,-1.4429992675781251,9.326056365966798,1.6290623474121095
62234,0.18696121215820313,11.340118103027343,1.9450552368164062
62301,-0.7363188171386719,12.198133850097657,0.9300160217285157
62368,-0.053438873291015626,10.965746612548829,2.3382875061035158
62434,-0.36314483642578127,9.961035919189454,0.5637277221679687
62501,0.71132080078125,7.390880584716797,1.1732601928710937
62567,-2.0772303771972656,10.773546295166016,2.475402374267578
62637,0.4547543334960938,10.442434844970704,1.796114959716797
62700,-1.6940272521972657,8.758885803222658,1.2103829956054688
62768,0.3998185729980469,7.757767639160156,0.8686436462402344
62834,-1.5745756530761719,8.681347045898438,1.8062937927246094
62901,-0.4122427368164063,7.8621006774902344,1.7809963989257813
62968,-1.1448193359375,8.594976654052735,2.555635528564453
63035,-0.5813909912109375,10.26265869140625,0.939895477294922
63101,0.3501219177246094,11.509116668701173,4.443509674072266
63168,0.46613067626953125,11.589798889160157,2.0389100646972658
63234,-0.9990225219726563,9.619745635986328,0.5801934814453126
63300,-1.2533436584472657,9.838740234375,1.3566288757324219
63367,-0.5647755432128907,10.925480346679688,3.041375427246094
63434,-1.4203962707519533,10.906769256591797,2.724484405517578
63501,-0.24998016357421876,9.814041595458985,1.5235317993164064
63567,-1.420096893310547,8.453670501708984,0.32946487426757814
63634,0.610580291748047,9.455836486816407,1.1934681701660157
63701,-1.6772621154785157,10.67220703125,1.8730549621582033
63768,-0.11481124877929688,11.270213470458986,1.2114308166503907
63834,-1.445394287109375,10.192304992675782,2.6102719116210937
63901,1.033450927734375,9.94936019897461,1.1082952880859376
63968,-1.8818865966796876,11.31931137084961,2.8602520751953127
64034,-0.24623794555664064,8.737180938720703,0.5420228576660157
64101,-0.9138496398925782,7.058421936035157,0.05673202514648438
64167,0.5613327026367188,8.437803497314453,0.8893006896972657
64236,-1.3820759582519533,11.079510040283203,2.046544189453125
64301,-1.4528787231445313,11.329190826416017,1.53999755859375
64368,-1.3382171630859376,10.310409393310547,1.3253439331054688
64434,-0.22423370361328127,8.625064086914064,-0.04445755004882813
64501,-0.6185137939453126,8.786428527832031,-0.4385879516601563
64568,0.32482452392578126,8.158933410644531,0.7117698669433594
64634,-1.6625926208496093,8.350235595703126,1.423988800048828
64701,0.09430389404296875,8.052654418945313,1.5380516052246094
64767,-0.3974235534667969,6.8320925903320315,0.20312759399414063
64834,-1.0276130676269533,8.269253997802736,2.059267730712891
64901,0.6343807983398437,12.383448486328126,1.7057029724121096
64968,-0.8578660583496094,10.748997344970704,2.093097381591797
65035,-0.7015910339355469,10.198591918945313,0.5700146484375
65101,-1.7209712219238282,8.653504943847656,-0.37137771606445313
65168,-1.389111328125,7.436385955810548,-0.3043171691894531
65236,-1.0669812011718751,6.837631072998048,0.7403604125976563
65300,-1.4778767395019532,7.649842071533204,0.8289761352539063
65367,-1.3138179016113283,9.939031677246094,1.0277627563476563
65434,-0.7888595581054688,10.187514953613281,0.6611750793457032
65501,-0.7734416198730469,10.935808868408204,0.26839187622070315
65567,-0.5758525085449219,10.089917907714844,1.1261082458496094
65634,-0.1986369323730469,9.92930191040039,0.4935237121582032
65702,-1.3952485656738283,10.111024017333985,0.6180647277832032
65767,-0.8512797546386719,9.214687957763672,-0.36598892211914064
65834,-1.2521461486816408,8.700956268310547,0.24683670043945313
65901,-1.812880096435547,9.721533966064454,1.0964698791503906
65967,-2.2974224853515626,10.84898941040039,2.775528259277344
66034,-2.9153375244140625,12.14319808959961,1.790277099609375
66101,-1.3000465393066407,10.264305267333985,0.6544390869140625
66168,-0.4486170959472656,8.057444458007813,0.6551875305175782
66235,0.4537065124511719,7.424560546875,1.5248789978027344
66301,0.5951623535156251,10.142159271240235,2.3212229919433596
66367,-0.4808001708984375,11.58036849975586,1.9484980773925782
66434,-1.6242723083496096,9.990524597167969,1.8916163635253906
66501,0.4378395080566406,9.819280700683594,1.8250048828125
66568,-0.7593708801269532,10.226583709716797,1.4681469726562502
66635,-1.2759466552734375,11.438762969970703,2.6201513671875003
66701,-0.4441264343261719,8.760083312988282,1.2421170043945313
66768,-0.8749305725097657,6.485563201904297,-1.3928535461425782
66834,-0.6041436767578126,9.34342025756836,1.32205078125
66901,-1.5329621887207032,13.01782928466797,1.4974859619140626
66968,0.45610153198242187,9.304501190185547,2.674937438964844
67035,-1.1876303100585939,7.851023712158203,0.8147557067871094
67100,0.5468128967285156,8.448730773925782,0.7458988952636719
67168,-1.0071057128906251,10.480605468750001,2.1007315063476564
67236,-0.33066238403320314,11.248957672119142,3.0659243774414064
67301,-0.9464817810058594,9.508826293945313,1.4756314086914064
67368,-1.4780264282226563,10.273735656738282,1.7485139465332031
67434,-1.4169534301757813,10.224937133789062,2.210453338623047
67501,-0.6074368286132813,10.313852233886719,0.7200027465820313
67568,-1.1777508544921875,8.644822998046875,1.6247213745117188
67634,1.4292279052734376,8.604257354736328,1.239272918701172
67701,-0.3632945251464844,8.197403411865235,0.8382568359375
67768,0.012424163818359375,7.356152801513672,1.645228729248047
67835,-0.32257919311523436,9.281898193359375,2.515369262695313
67901,-0.013771362304687501,11.173813934326173,2.578537902832031
67968,-1.9029927062988283,11.270812225341798,2.20341796875
68034,-0.59396484375,10.008337554931641,0.9665400695800782
68100,-1.3262420654296876,8.235873413085939,1.9928059387207033
68168,0.427510986328125,9.704469451904297,2.4833358764648437
68236,-0.06855743408203126,12.21025863647461,1.9450552368164062
68300,-0.4017645263671875,9.928852844238282,2.3846910095214846
68367,-0.6517446899414063,9.739795989990235,2.2149440002441407
68434,-0.47196853637695313,9.253457336425782,1.4114149475097657
68501,-0.9753717041015626,10.809471588134766,2.6313780212402347
68568,0.15417938232421877,8.453520812988282,2.715652770996094
68634,-0.8924441528320313,7.948321380615234,1.1701167297363282
68701,-1.174457702636719,8.384963378906251,3.023712158203125
68768,0.8084687805175782,8.670569458007813,1.4757810974121095
68834,-0.6876699829101562,9.56615707397461,2.548899536132813
68901,-0.25462051391601564,8.151299285888673,1.45856689453125
68968,-0.5719606018066407,8.90273666381836,1.412911834716797
69035,-1.3564791870117188,9.909692687988281,2.125879211425781
69101,-0.9379495239257813,9.6183984375,1.4552737426757814
69168,-1.18074462890625,10.266101531982422,1.7371376037597657
69235,-0.03787124633789063,9.506730651855468,2.7358607482910156
69301,1.265767822265625,10.847791900634766,2.2050645446777346
69368,-0.001047821044921875,11.054212646484375,2.2014720153808596
69434,-0.011376342773437501,9.317524108886719,1.782942352294922
69501,-0.29309051513671874,10.067464599609375,1.2331356811523437
69568,-0.8723858642578125,8.515491943359375,2.203268280029297
69636,-0.5083428955078125,9.43922103881836,1.4465917968750002
69703,-0.9036708068847656,8.882977752685548,1.538800048828125
69768,-0.8963360595703126,9.800120544433595,2.4132815551757814
69834,-0.9927355957031251,9.397457885742188,1.85614013671875
69901,-1.0803034973144532,10.091414794921876,2.8454328918457032
69968,0.20357666015625,8.421188049316406,2.2041664123535156
70034,-0.7761360168457032,11.34805160522461,2.4659719848632813
70101,-0.17333953857421877,11.362122344970704,2.9889843750000002
70168,-0.30895751953125,9.56376205444336,2.37825439453125
70235,-2.2442829895019534,11.48890869140625,1.6657360839843751
70301,0.5279521179199219,9.89666976928711,2.5117767333984378
70368,-0.9195378112792969,10.33974838256836,2.1772224426269533
70434,0.3448828125,9.926757202148439,2.139949951171875
70501,-0.530496826171875,9.284891967773438,2.805316314697266
70568,-0.14325210571289063,9.73291030883789,3.978875885009766
70635,-0.22722747802734375,11.042836303710938,3.4756224060058596
70700,0.20118164062500002,10.506501617431642,3.7544924926757814
70768,0.8312214660644531,9.73096435546875,3.5248699951171876
70835,-0.5780978393554688,9.96567626953125,3.1713052368164063
70901,-1.1335926818847657,8.495433654785156,3.412603454589844
70968,-0.0796343994140625,8.447982330322265,3.140768737792969
71035,-0.44382705688476565,8.914412384033204,3.070564727783203
71101,-0.8199948120117188,10.55769515991211,3.7700601196289063
71168,-0.7328759765625,10.243348846435547,3.5259178161621096
71234,-0.20627105712890625,11.659104766845704,2.2246737670898438
71301,-0.64905029296875,9.307195587158203,2.002086639404297
71368,-0.6457571411132813,8.43959976196289,1.0855426025390627
71435,-0.5785469055175781,8.594377899169922,1.7546511840820314
71501,-0.39128631591796875,9.90145980834961,1.8796412658691408
71568,0.11061996459960938,10.520722045898438,2.536026306152344
71635,-1.088536376953125,9.190588073730469,2.0505857849121094
71702,-1.608255615234375,8.598718872070313,2.2101539611816405
71768,0.1407073974609375,8.958869934082031,1.8402731323242187
71834,-0.3597019958496094,8.943751373291017,2.054777069091797
71901,-0.35775604248046877,9.387728118896485,2.288141784667969
71968,-1.1311976623535156,9.431736602783204,2.4098387145996094
72036,0.3391946411132813,9.282347259521485,1.4724879455566406
72101,-1.610650634765625,9.109007720947266,2.099983062744141
72168,-0.19923568725585938,9.974058837890626,1.8182688903808595
72234,-0.6373745727539063,8.752000122070314,1.7365388488769533
72301,-1.0100994873046876,9.974208526611328,2.092348937988281
72368,-0.6659651184082032,9.515262908935547,2.039508819580078
72434,-0.67060546875,9.103319549560547,2.853516082763672
72501,0.5718109130859376,10.361602935791016,2.065404968261719
72568,-1.8079403686523439,8.599317626953125,1.4283297729492188
72634,0.8830137634277344,9.984986114501954,1.2172686767578125
72701,-0.969833221435547,10.884615325927735,0.8604107666015626
72768,-1.4287788391113283,9.617350616455079,1.7597406005859375
72835,-1.4419514465332033,9.3645263671875,1.5919395446777345
72901,0.11481124877929688,9.170829162597657,1.6263679504394533
72968,-1.1238629150390627,9.476343841552735,1.7193246459960938
73034,-1.349443817138672,10.043813781738281,1.8317408752441406
73101,-0.6616241455078126,9.507479095458985,2.0567230224609374
73168,0.14639556884765625,9.213041381835938,1.2340338134765625
73234,-1.0217752075195312,8.035739593505859,1.6959732055664063
73301,-0.408350830078125,8.42852279663086,1.9152671813964846
73368,-0.23680755615234375,10.527158660888672,2.4171734619140626
73435,-0.5701643371582031,11.120674438476563,2.4694148254394532
73501,-0.7137158203125,10.164762268066406,2.609373779296875
73568,0.02424957275390625,9.507479095458985,2.207010498046875
73634,0.053738250732421874,9.414971466064454,2.1311183166503906
73701,-0.7237449645996095,8.727600860595704,1.67890869140625
73768,0.4667294311523438,9.597142639160158,1.8589842224121094
73835,-1.482217712402344,9.064999237060547,2.9184809875488282
73901,-1.1535012817382813,9.403595123291016,2.2502705383300783
73968,0.21615051269531252,10.604547729492188,2.7794201660156252
74034,-1.0750643920898437,8.73748031616211,3.3447944641113283
74101,-0.33635055541992187,9.171876983642578,2.9620404052734375
74168,0.132923583984375,9.084458770751954,3.1534922790527347
74234,-0.49517028808593755,10.3895947265625,3.329825592041016
74301,-0.4022135925292969,10.365943908691406,2.981350250244141
74368,-0.5890251159667969,10.12374755859375,2.501897277832031
74435,-0.5153782653808594,9.190438385009767,2.195933532714844
74501,-0.6578819274902344,9.540410614013672,2.722837829589844
74568,0.0149688720703125,9.859996032714845,3.4585578918457034
74634,0.11211685180664063,9.773475952148438,3.4072146606445313
74709,-0.7912545776367188,8.660989379882812,2.581381988525391
74768,-0.8241860961914063,8.867410125732423,3.160377960205078
74835,0.12588821411132814,9.161847839355469,3.071163482666016
74901,-0.3878434753417969,9.24043441772461,3.351680145263672
74968,-0.15777191162109375,8.89749755859375,3.4944831848144533
75035,-0.5301974487304688,8.831933898925781,3.725452880859375
75101,-0.28830047607421877,9.21887924194336,3.398383026123047
75168,0.11256591796875001,9.323661346435548,3.3190480041503907
75235,-0.5227130126953126,10.51697982788086,2.7701394653320315
75301,0.18546432495117188,9.76733871459961,2.571053466796875
75368,-0.7188052368164063,8.77774658203125,2.844385070800781
75434,0.09475296020507813,8.456065521240236,3.0686187744140625
75501,-0.38320312500000003,9.866432647705079,3.1880703735351563
75568,0.4099974060058594,8.838370513916017,3.9053787231445316
75637,-0.36239639282226566,10.573412475585938,4.163591766357422
75701,-0.38455032348632817,10.469229125976563,4.0284228515625005
75768,0.16375946044921877,8.533155212402344,2.7199937438964845
75834,0.6165678405761719,8.790470123291016,2.4995022583007813
75903,-0.22767654418945313,9.156758422851563,2.6110203552246096
75968,-0.46223876953125004,9.814490661621095,2.109712829589844
76034,-1.7857864379882813,10.333760833740234,2.3010150146484376
76101,-0.42002655029296876,9.756561126708984,1.5265255737304688
76168,-0.14804214477539063,8.794811096191406,0.9779164123535157
76235,-0.6355783081054688,8.632847900390626,1.4066249084472657
76301,-0.7798782348632813,9.365723876953126,1.924398193359375
76368,0.3565585327148438,9.202712860107422,2.203268280029297
76435,-0.3330574035644531,9.575437774658203,2.724933471679688
76501,-0.5080435180664062,9.919272766113282,1.9154168701171876
76568,-0.8848100280761719,9.479786682128907,1.8610798645019533
76634,-0.9105564880371094,9.64429458618164,1.6245716857910157
76701,-0.48109954833984375,9.687404937744141,1.8817369079589845
76768,-0.6541397094726563,9.784852294921876,1.6769627380371095
76834,-0.4709207153320313,9.358389129638672,1.252445526123047
76901,-0.42526565551757817,9.282796325683595,1.1846365356445314
76968,-0.10597961425781251,9.462871856689453,1.2910652160644531
77034,-0.279019775390625,10.036329345703125,1.7485139465332031
77101,0.36434234619140626,10.052795104980468,1.6875906372070313
77168,0.05942642211914063,10.175240478515626,1.9281404113769531
77235,-0.7767347717285157,9.099876708984375,1.4362632751464846
77301,-0.7439529418945313,9.453740844726562,1.5081138610839844
77368,-0.9644444274902344,9.505682830810548,1.9404148864746096
77435,-0.47481262207031255,10.113269348144533,2.026036834716797
77501,-0.4267625427246094,9.981393585205078,1.4688954162597656
77568,-0.4989125061035157,8.859027557373047,1.6480728149414063
77635,-1.3058843994140625,9.405690765380859,1.7748591613769533
77701,-1.264270935058594,8.630153503417969,1.3272898864746094
77768,-0.6506968688964844,8.886719970703126,1.6399896240234375
77835,-0.6900650024414063,10.237361297607423,1.7592915344238282
77900,-0.6792874145507812,10.325078887939453,2.1174966430664064
77968,-0.42107437133789066,9.108408966064454,1.9071839904785157
78034,-1.4283297729492188,9.474697265625,1.8926641845703125
78101,-0.3058140563964844,9.638456726074219,1.5847544860839844
78168,-1.2693603515625,9.314829711914063,1.7624349975585938
78235,-0.6727011108398437,9.971514129638672,1.8729052734375
78301,-0.607137451171875,10.199490051269532,1.9764898681640626
78367,-0.9340576171875,10.196795654296876,2.7321185302734374
78436,-0.4796026611328125,10.413544921875001,2.4397764587402344
78501,-1.26217529296875,8.215964813232421,1.67890869140625
78568,-1.2494517517089845,8.499774627685547,0.5239105224609375
78637,-0.5481600952148438,10.141859893798829,1.4965878295898438
78713,-1.3265414428710938,10.605894927978516,2.0013381958007814
78767,-1.8148260498046875,10.861114196777343,2.0113673400878906
78835,-0.2076182556152344,10.240205383300781,1.7763560485839844
78901,-1.855990447998047,9.579928436279298,2.0972886657714844
78967,-0.3534150695800781,9.710007934570314,1.519490203857422
79034,-1.5497273254394532,8.805438995361328,0.9779164123535157
79101,-0.6176156616210938,9.531279602050782,0.8047265625000001
79168,0.33904495239257815,9.53981185913086,0.8162525939941406
79235,-1.9597247314453126,10.138866119384765,0.97716796875
79301,-0.41927810668945314,9.052275695800782,0.5730084228515625
79368,-1.4590159606933595,7.865992584228516,0.6200106811523438
79436,-1.0524613952636719,9.20016815185547,0.36778518676757815
79501,-0.6773414611816406,9.560917968750001,0.13801300048828125
79567,-1.6091537475585938,8.880732421875,0.08367599487304687
79635,-0.5322930908203125,10.860814819335937,0.2483335876464844
79701,-1.0386900329589843,10.192005615234375,0.45146118164062504
79768,-1.5798147583007813,10.202184448242187,0.46538223266601564
79835,-0.9023236083984375,10.587483215332032,0.5035528564453126
79901,-0.4303550720214844,9.976453857421875,0.48379394531250003
79967,-0.9596543884277344,9.887838134765625,0.1920506286621094
80035,-1.1190728759765625,9.136550445556642,0.39398071289062503
80101,-0.722098388671875,8.898844757080079,0.5231620788574219
80167,-1.0770103454589843,9.525142364501953,0.5694158935546876
80237,-0.4412823486328125,9.351353759765626,0.5504054260253907
80301,-0.8857081604003907,10.490784301757813,1.319506072998047
80368,-0.4123924255371094,10.124346313476563,1.219214630126953
80435,-0.5921685791015625,10.645562438964845,1.1270063781738282
80501,-0.9440867614746095,9.500443725585939,0.7150630187988282
80568,-0.6858737182617188,8.623118133544923,1.1109896850585939
80635,-0.1586700439453125,9.598639526367188,0.10103988647460938
80705,-0.9708810424804688,8.555758209228516,-0.5409750366210938
80768,-1.06578369140625,9.81284408569336,0.8036787414550781
80835,-0.45565246582031255,10.143057403564454,1.6604969787597657
80901,-0.8470884704589844,10.043963470458985,0.4090992736816406
80968,-0.7722441101074219,10.554551696777345,0.20582199096679688
81035,-0.9593550109863281,9.163494415283203,0.17693206787109375
81101,-0.03742218017578125,10.613678741455079,0.5295986938476562
81168,-0.046253814697265624,10.021360473632813,1.3433065795898438
81234,-0.7050338745117188,9.921518096923828,0.6153703308105469
81301,-1.5120057678222658,8.326285400390626,0.8732839965820313
81368,-0.4686753845214844,9.713301086425782,0.8887019348144531
81435,-0.26539810180664064,9.659263458251953,1.2361294555664064
81501,-0.9779164123535157,10.123597869873047,1.1156300354003907
81567,-1.1225157165527344,10.193801879882812,2.0407063293457033
81636,-0.9342073059082032,9.340127105712892,1.400787048339844
81701,-0.6533912658691406,8.205636291503907,0.5526507568359376
81768,-0.14564712524414064,8.773106231689454,0.7429051208496094
81837,-0.61552001953125,9.827363891601562,1.4491365051269531
81901,-1.219214630126953,10.345436553955079,2.2637425231933594
81968,-0.9589059448242188,9.526190185546875,1.6316070556640625
82034,-0.29309051513671874,8.412206726074219,1.1852352905273438
82101,-0.7357200622558594,9.809850311279297,0.6460565185546875
82168,-1.30528564453125,10.102342071533204,1.1295510864257814
82234,-0.6411167907714844,10.41593994140625,1.2078382873535156
82301,-0.22722747802734375,9.783505096435547,1.5893948364257813
82367,-0.6465055847167969,9.868677978515626,0.6484515380859376
82435,-1.2118798828125001,9.781409454345704,0.37676651000976563
82501,-0.7455995178222656,10.070907440185547,0.5899232482910156
82568,-0.8855584716796876,9.200018463134766,0.24683670043945313
82634,-0.9348060607910157,9.840985565185548,0.3445834350585938
82701,-0.4345463562011719,9.512418823242188,-0.20133132934570314
82768,-0.09819580078125001,9.961634674072267,-0.11526031494140626
82835,-0.8590635681152344,9.945917358398438,0.5533992004394531
82901,-1.3584251403808594,10.067913665771485,0.5972579956054688
82968,-1.0467732238769532,8.625812530517578,-0.3501219177246094
83034,-0.032183074951171876,9.815538482666016,0.05718109130859375
83101,-1.483864288330078,10.696306915283204,1.22385498046875
83168,-0.5117857360839844,10.1165625,0.48020141601562505
83234,-1.253792724609375,8.945996704101564,-0.4029620361328125
83301,-1.0958711242675783,8.065078582763672,0.17244140625
83368,-0.39787261962890624,9.8243701171875,0.5337899780273437
83436,-1.1383827209472657,9.458979949951173,0.5444178771972656
83501,-1.1502081298828126,9.249864807128906,0.4805007934570313
83568,-0.2130070495605469,8.846753082275391,0.719703369140625
83634,-0.9210346984863281,9.74862762451172,2.0160076904296877
83701,-0.23590942382812502,9.606573028564453,2.3999592590332033
83768,-1.3983920288085938,9.693691864013672,1.6778608703613282
83834,-1.0475216674804688,10.564131774902345,1.733844451904297
83901,-0.1790277099609375,9.2878857421875,1.7941690063476563
83967,-0.7836204528808595,9.61315933227539,1.4015354919433594
84034,-0.8333171081542969,10.20083724975586,1.7946180725097658
84101,-0.2938389587402344,9.47364944458008,1.7440232849121096
84168,-0.8855584716796876,9.514065399169922,2.0613633728027345
84234,-1.1755055236816407,9.417815551757814,1.8613792419433595
84301,-0.5785469055175781,9.882000274658203,1.430874481201172
84368,-0.7869136047363282,9.515262908935547,1.1388317871093752
84435,-0.9604028320312501,9.505383453369141,2.4394770812988282
84501,-1.0988648986816407,10.345436553955079,2.4768992614746095
84567,-0.6042933654785156,10.9164990234375,1.9803817749023438
84635,-1.0964698791503906,10.051298217773438,1.6215779113769533
84701,-1.40587646484375,9.392368469238281,1.7200730895996095
84768,-0.42945693969726567,9.478439483642578,0.8165519714355469
84835,-0.7156617736816406,9.802216186523438,0.4590953063964844
84900,-0.23665786743164063,9.357041931152343,0.7288343811035156
84967,-1.6666342163085939,10.101893005371094,1.0108479309082032
85041,-1.1680210876464845,8.939410400390626,0.6137237548828125
85104,-1.0490185546875002,9.782906341552735,0.6565347290039063
85168,-1.7423767089843751,9.943522338867188,0.45101211547851566
85239,-1.646575927734375,9.013805694580078,0.10927276611328125
85301,-1.941013641357422,9.28504165649414,0.7442523193359375
85367,-1.1726614379882814,9.474846954345704,0.23680755615234375
85436,-2.0778291320800784,10.053693237304689,1.4283297729492188
85501,-1.3162129211425782,8.24320816040039,0.016465759277343752
85567,-1.1039543151855469,10.032587127685547,0.2130070495605469
85638,-1.8206639099121094,9.208251342773439,0.5719606018066407
85701,-0.9386979675292969,8.684490509033203,2.5129742431640625
85768,-0.9195378112792969,10.74540481567383,0.5736071777343751
85842,-1.6717236328125,9.341923370361329,0.5022056579589844
85912,-0.9610015869140626,9.233848114013673,-0.46119094848632813
85968,-1.6498690795898439,10.206675109863282,0.5882766723632813
86041,-2.199675750732422,10.32732421875,0.9548643493652345
86101,-1.4374607849121095,9.345216522216797,0.7065307617187501
86167,-1.1720626831054688,8.873846740722657,-0.3673361206054688
86237,-1.9892134094238283,8.49124237060547,0.29608428955078125
86302,-1.839225311279297,10.031838684082032,0.6387217712402344
86368,-0.040415954589843754,8.868457946777344,0.7247927856445313
86440,-1.68848876953125,7.606132965087891,0.030985565185546876
86502,-1.1680210876464845,9.884694671630859,0.13097763061523438
86568,-1.5200889587402344,9.409882049560547,0.9416917419433595
86637,-1.1876303100585939,9.596992950439454,0.621357879638672
86702,-1.2337344360351563,9.44880111694336,0.7229965209960938
86768,-0.7511380004882813,10.159074096679689,0.29114456176757814
86840,-1.230890350341797,10.05668701171875,0.44457550048828126
86901,-2.0646565246582034,8.631201324462891,0.28306137084960936
86967,-0.997375946044922,8.501570892333985,0.3686833190917969
87056,-1.767374725341797,8.663983154296876,1.3846206665039062
87102,-1.3950988769531252,10.448123016357423,1.4882052612304688
87168,-0.6375242614746094,12.008029174804689,1.3551319885253907
87237,0.016465759277343752,10.74690170288086,1.1012599182128906
87301,0.6122268676757813,11.639345855712891,1.0916798400878907
87368,-0.41463775634765626,11.488010559082031,0.3357518005371094
87443,-1.4952406311035158,10.86470672607422,0.023501129150390626
87501,-1.6886384582519531,8.826844482421876,0.5288502502441407
87567,-1.4160552978515626,9.614207153320313,0.9301657104492188
87643,-1.3867163085937502,9.703271942138672,1.3430072021484376
87702,-1.548380126953125,9.823022918701172,0.7226971435546875
87768,-0.9080117797851563,8.758287048339843,-0.0520916748046875
87838,-1.2258009338378908,8.781788177490235,0.21809646606445313
87901,-0.3537144470214844,9.532477111816407,1.1198213195800781
87968,-1.5293696594238282,10.094258880615234,1.2079879760742187
88037,-0.9975256347656251,9.408983917236329,1.0777587890625
88101,-1.137484588623047,9.874515838623047,0.3212319946289063
88168,-1.091081085205078,10.429262237548828,0.142503662109375
88241,-1.0843450927734375,10.748099212646485,2.206860809326172
88301,-0.9596543884277344,9.521998901367189,0.1047821044921875
88368,-1.114582214355469,7.303312683105469,-0.35042129516601567
88437,-1.28373046875,7.068301391601563,0.14280303955078125
88501,-1.5802638244628906,8.345894622802735,1.2247531127929687
88568,-1.7459692382812502,7.517816619873047,0.669407958984375
88640,-0.25761428833007816,8.59527603149414,1.2678634643554687
88720,-0.6674620056152344,9.722581787109375,1.2034973144531251
88768,-1.2323872375488283,10.580747222900392,1.3394146728515626
88842,-0.29877868652343753,10.196795654296876,0.6782395935058594
88903,-1.5593074035644532,9.775122528076173,1.0665321350097656
88968,-0.22558090209960938,8.273594970703126,0.3347039794921875
89037,-0.7864645385742188,9.81853225708008,1.13284423828125
89101,-0.8961863708496094,10.128088531494141,1.6408877563476563
89168,-0.7200027465820313,9.569899291992188,0.6515950012207031
89241,-0.8319699096679688,9.062903594970704,0.7143145751953125
89301,-1.3263917541503907,9.285341033935547,0.7744894409179688
89367,-1.0767109680175782,10.369237060546876,0.30910720825195315
89437,-1.0385403442382812,10.460247802734376,1.0636880493164063
89501,-1.3698014831542968,10.706036682128907,1.9475999450683594
89568,-1.3103750610351563,9.117989044189454,0.8029302978515626
89638,-0.24474105834960938,10.144404602050782,0.7972421264648438
89701,-1.2314891052246095,9.449549560546876,2.240241394042969
89768,-0.841699676513672,10.875933380126954,2.1118084716796877
89843,-1.5215858459472658,10.226883087158203,1.828447723388672
89901,-0.30147308349609375,8.989406433105469,0.907562713623047
89968,-1.2217593383789063,9.08475814819336,1.7100439453125
90042,-0.8192463684082032,9.082512817382813,2.34472412109375
90101,-0.8942404174804688,10.388397216796875,2.5676106262207035
90168,-1.5700849914550783,9.91388397216797,2.472258911132813
90240,-0.48529083251953126,8.042325897216797,1.4262341308593751
90301,0.049846343994140625,10.330467681884766,1.2903167724609375
90367,-0.8405021667480469,10.27702880859375,1.916015625
90437,0.5402265930175781,10.659633178710939,1.3886622619628908
90502,-1.5980767822265627,9.360933837890625,2.668800201416016
90568,0.18696121215820313,8.464897155761719,1.7564474487304689
90638,-1.1427236938476564,6.407874755859376,-0.07020401000976563
90703,-1.2017010498046876,7.547904052734375,1.653760986328125
90768,-0.5278024291992188,9.0483837890625,3.0205686950683597
90840,-0.42646316528320316,10.232870635986329,1.4503340148925783
90901,-0.05792953491210938,10.089019775390625,1.5533198547363283
90967,0.37616775512695316,9.915979614257813,3.081192626953125
91036,-1.0300080871582031,12.328363037109376,3.389850769042969
91101,-0.346080322265625,6.5345114135742195,1.5983761596679689
91168,-0.28036697387695314,5.1201026916503904,0.2389031982421875
91242,0.23845413208007812,8.507408752441407,1.4708413696289062
91301,-0.9473799133300782,10.755583648681641,2.154170379638672
91368,-1.812880096435547,7.511080627441407,2.7764263916015626
91438,0.88855224609375,8.533155212402344,2.348166961669922
91501,-0.05837860107421875,8.288414154052735,2.4441174316406253
91567,-0.28500732421875,10.256072387695314,3.1882200622558594
91645,-0.2507286071777344,10.565628662109376,2.704725494384766
91701,-0.015417938232421876,11.962972869873047,3.4757720947265627
91768,-1.119521942138672,10.370284881591797,2.673889617919922
91837,-0.35221755981445313,9.209448852539063,1.9248472595214845
91901,0.026494903564453127,9.595346374511719,1.695524139404297
91968,-1.2466076660156251,10.930120697021485,2.454595642089844
92043,-0.5581892395019532,9.759405212402344,2.937341766357422
92101,-0.44726989746093754,9.981543273925782,2.216590576171875
92168,-0.47900390625,9.886640625,3.335962829589844
92237,-1.3918057250976563,10.831775207519533,3.0515542602539063
92301,-0.7926017761230469,10.960657196044922,3.0518536376953125
92367,-0.022004241943359377,11.186836853027344,2.757565612792969
92442,-1.1033555603027345,9.509574737548828,2.8000772094726565
92501,0.04086502075195313,8.611592102050782,1.3061837768554687
92568,-0.5122348022460937,8.771609344482423,2.4765998840332033
92637,0.7455995178222656,10.304870910644532,3.414998474121094
92702,-0.5595364379882812,10.098450164794922,3.626957702636719
92768,0.09894424438476564,9.931397552490235,3.1461575317382815
92838,-0.53408935546875,9.810598754882813,3.438948669433594
92901,-0.8000862121582032,9.854906616210938,3.7649707031250004
92967,-0.16839981079101562,8.94015884399414,3.738326110839844
93036,-0.24474105834960938,7.886350250244141,2.700234832763672
93101,-0.01945953369140625,10.141410827636719,3.795806579589844
93168,-0.018711090087890625,10.067913665771485,4.165238342285156
93242,0.018860778808593753,9.812245330810548,2.5203089904785156
93301,0.9910890197753907,7.965535583496094,3.7857774353027347
93367,0.8436456298828126,10.130184173583984,3.440445556640625
93437,0.9692344665527344,9.021439819335939,4.090244293212891
93500,-0.6581813049316406,9.617649993896485,3.233426055908203
93568,0.7807763671875,8.523724822998048,3.4179922485351564
93639,1.55915771484375,10.501561889648437,4.598736877441406
93701,0.3261717224121094,9.692344665527344,3.4024246215820315
93768,0.3459306335449219,9.876910858154297,4.684957580566406
93843,-0.5460644531250001,9.60447738647461,2.5044419860839846
93901,0.4221221923828125,10.871742095947265,3.5774107360839844
93967,1.8038987731933596,10.066566467285156,3.9797740173339844
94037,0.4739144897460938,10.061327362060547,3.2157627868652345
94101,0.31210098266601566,9.646390228271486,3.603456573486328
94168,1.5188914489746095,8.583450622558594,3.942950592041016
94242,1.6477734375000002,8.949888610839844,3.5163377380371097
94301,-0.2411485290527344,9.357041931152343,3.604055328369141
94368,0.8619076538085938,7.683971099853516,3.835623779296875
94437,0.25776397705078125,10.792556762695312,2.9424311828613283
94501,-0.6285429382324219,9.694440307617189,2.9416827392578124
94568,0.2893482971191406,8.625812530517578,3.768263854980469
94641,1.8940113830566407,8.630752258300781,4.525688781738282
94701,0.6508465576171876,9.385632476806641,4.871320037841797
94768,-0.1197509765625,9.436077575683594,3.9842646789550784
94837,0.5078938293457032,8.538993072509767,4.711153106689453
94901,1.9276913452148439,11.705807647705079,5.655239868164063
94970,0.8135581970214845,10.546169128417969,5.485492858886719
95038,-1.4019845581054688,9.516759796142578,4.011358337402344
95101,0.9360035705566406,9.069340209960938,3.5774107360839844
95167,0.9846524047851563,7.696544952392578,4.950205993652344
95236,0.678988037109375,8.412206726074219,3.9875578308105473
95301,0.2333647155761719,8.522677001953125,4.038451995849609
95368,0.760269012451172,9.059161376953126,4.4071353149414065
95441,0.24623794555664064,7.864495697021485,3.6227664184570316
95501,0.30686187744140625,8.456664276123048,3.1560369873046876
95568,0.30072463989257814,9.304501190185547,3.7814364624023438
95637,0.6959028625488282,9.659862213134765,3.158731384277344
95701,-0.22468276977539064,11.182645568847656,5.6474560546875
95768,0.29877868652343753,10.490185546875,3.782633972167969
95838,3.3006362915039062,10.606044616699219,3.7881724548339846
95901,1.3260923767089845,10.812914428710938,3.5250196838378907
95967,1.7797988891601564,8.528065795898438,3.3226405334472657
96037,1.3048365783691407,9.946216735839844,3.4084121704101564
96101,1.8838325500488282,6.007607116699219,2.6325755310058594
96167,0.8443940734863282,7.441175994873047,1.850002899169922
96242,0.5541476440429688,8.498277740478516,2.242935791015625
96301,0.30805938720703124,10.421029357910157,3.0217662048339844
96367,2.055675201416016,10.267149353027344,1.465602264404297
96437,1.2027488708496095,10.73642349243164,2.731669464111328
96501,1.6461268615722657,11.351344757080078,3.1281948852539063
96567,0.7816744995117187,10.94044921875,2.9967681884765627
96636,1.6612454223632813,10.465935974121095,2.5092320251464844
96701,1.8181192016601564,9.25196044921875,1.0400372314453126
96768,2.017654266357422,12.368479614257813,2.724634094238281
96838,0.4596940612792969,8.957073669433594,3.963158569335938
96901,0.9243278503417969,8.774303741455078,2.2601499938964844
96967,2.924019470214844,7.989635467529297,1.3271401977539063
97037,1.531614990234375,9.377100219726563,-0.4677772521972656
97101,1.8058447265625002,6.371650085449219,1.7748591613769533
97167,1.8055453491210938,9.521998901367189,3.065175933837891
97238,2.492766265869141,10.52655990600586,2.6566754150390626
97301,2.4589366149902343,9.96567626953125,2.8095075988769533
97367,1.9417620849609376,9.008416900634765,1.85135009765625
97437,2.1511766052246095,9.039103088378907,1.8562898254394533
97501,2.5635690307617187,9.605225830078126,2.2468276977539063
97567,3.7848793029785157,10.037676544189454,2.075134735107422
97640,4.264931030273438,9.352850646972657,1.6289126586914062
97701,3.250340881347656,8.968150634765625,2.445015563964844
97767,3.7350329589843754,9.53502182006836,2.805615692138672
97837,4.378544769287109,10.046508178710939,1.9257453918457033
97901,3.750151519775391,9.974956970214844,2.691852264404297
97967,2.2372476196289064,9.979148254394532,1.9688557434082032
98041,3.6396812438964847,8.924890594482422,1.1808943176269533
98101,3.0692175292968753,9.990225219726563,1.615290985107422
98167,3.1751971435546875,9.342971191406251,1.4551240539550783
98237,3.154390411376953,9.507778472900391,1.503772888183594
98301,3.7348832702636723,9.595196685791016,1.2069401550292969
98367,3.742218017578125,10.500813446044923,1.7392332458496094
98443,3.6483631896972657,10.520722045898438,1.248852996826172
98501,3.6335440063476563,10.178982696533204,1.2716056823730468
98567,3.7341348266601564,9.645342407226563,1.5759228515625001
98637,2.990181884765625,9.405391387939453,1.2021501159667969
98701,3.4813105773925783,9.356443176269531,1.1057505798339844
98767,3.350782012939453,9.632618865966798,1.2781919860839845
98840,3.1641201782226562,9.797276458740235,1.099463653564453
98901,3.0999037170410157,9.322463836669922,1.2940589904785156
98967,3.2362701416015627,8.748108215332032,1.3449531555175782
99036,3.782783660888672,8.784632263183594,1.2759466552734375
99101,3.4997222900390628,10.068811798095703,1.774559783935547
99168,3.2615675354003906,9.81568817138672,1.504072265625
99240,2.9436286926269535,10.334808654785157,1.6542100524902346
99301,3.7438645935058594,10.009984130859376,1.7821939086914063
99367,2.752027130126953,10.119556274414062,1.964963836669922
99438,3.1454090881347656,9.364376678466797,1.6124468994140626
99501,3.0273046875,10.536589050292969,1.5884967041015625
99568,3.4636473083496098,10.100845184326172,0.18935623168945315
99640,3.1757958984375003,9.797725524902344,0.6671626281738282
99701,2.941233673095703,9.03206771850586,1.0731184387207031
99768,2.8434869384765626,10.385852508544922,1.232237548828125
99839,2.672392730712891,9.956096191406251,1.2542417907714845
99901,2.8568092346191407,9.139244842529298,1.4292279052734376
99967,3.0520033264160156,9.624984741210938,1.2864248657226562
100036,3.1560369873046876,9.895023193359375,1.657203826904297
100101,3.08478515625,10.35651351928711,2.0011885070800783
100168,3.134481811523438,10.160720672607422,1.6995657348632813
100238,3.441493377685547,9.364825744628908,1.2762460327148437
100301,3.0996043395996096,10.300080871582031,1.25259521484375
100367,2.771336975097656,9.291328582763672,1.6018190002441408
100437,2.4459136962890624,9.37934555053711,0.9475296020507813
100501,2.429747314453125,9.757010192871094,0.5689668273925782
100568,2.1403990173339844,9.099128265380859,0.6159690856933594
100640,2.112107849121094,10.03947280883789,0.9434880065917969
100701,1.718426513671875,10.403815155029298,1.3513897705078126
100768,1.5893948364257813,10.261760559082031,0.8132588195800782
100837,1.954186248779297,9.728120269775392,0.6087840270996094
100901,1.9851718139648438,9.314979400634765,0.8527766418457031
100967,2.197280731201172,10.573262786865236,0.13037887573242188
101036,2.4697142028808594,10.743458862304688,0.47481262207031255
101101,2.524200897216797,10.109976196289063,0.3296145629882813
101167,2.0474423217773436,9.40808578491211,0.2594105529785156
101238,2.285896453857422,9.734706573486328,0.3550616455078125
101301,2.135309600830078,9.206305389404298,0.47975234985351567
101367,2.739752655029297,9.735604705810548,0.21001327514648438
101435,2.088606719970703,9.863438873291017,0.5846841430664063
101501,2.6574238586425785,8.999734954833984,0.35865417480468753
101568,2.6661058044433594,10.383756866455078,0.7634124755859375
101639,2.8087591552734374,10.288255462646484,0.4505630493164063
101701,2.8800109863281254,9.158854064941407,0.6158193969726563
101767,2.824476470947266,9.769284667968751,0.6420149230957032
101836,3.10155029296875,10.295440521240234,0.7732919311523437
101901,2.2912852478027346,9.570498046875,0.9273216247558594
101967,3.256927185058594,9.989027709960938,0.5921685791015625
102041,2.7446923828125,9.347611541748048,0.51971923828125
102101,2.1698876953125,10.900482330322266,1.3995895385742188
102167,2.5477020263671877,10.495574340820314,0.6351292419433594
102237,3.546874237060547,10.094258880615234,0.2962339782714844
102301,1.349443817138672,9.419911193847657,0.46493316650390626
102367,4.044888610839844,10.04905288696289,0.7288343811035156
102442,2.3561004638671874,11.126362609863282,0.9029223632812501
102501,5.808521118164062,10.145003356933595,0.17797988891601563
102567,2.6445506286621097,12.498110046386719,0.09819580078125001
102638,2.2848486328125,11.538006591796876,0.10612930297851562
102701,3.569477233886719,11.114537200927735,-1.9332298278808595
102768,2.3772065734863284,9.598938903808595,-0.6679110717773438
102838,3.023861846923828,9.775870971679687,-0.05957611083984375
102901,2.6596691894531252,10.186766510009766,-0.13636642456054687
102968,2.424657897949219,10.110275573730469,-0.6376739501953125
103036,3.2394136047363284,11.734248504638673,0.13576766967773438
103101,3.313359832763672,10.616373138427734,-0.05478607177734375
103167,3.1280451965332032,10.293344879150391,-0.7455995178222656
103241,3.613934783935547,9.43203598022461,-0.45101211547851566
103301,2.6432034301757814,9.667496337890626,-1.077609100341797
103367,3.2991394042968754,11.52722900390625,-0.12648696899414064
103437,3.5018179321289065,9.550140380859375,-0.004340972900390625
103501,3.772904205322266,10.239307250976562,-0.8388555908203126
103568,3.59971435546875,10.071206817626953,-0.3399430847167969
103636,3.497327270507813,10.054441680908203,-0.751886444091797
103701,3.0181736755371094,10.911708984375,0.03577560424804688
103768,1.8663189697265625,10.229876861572267,-0.44577301025390625
103838,2.343227233886719,10.244097290039063,-0.8710386657714844
103901,1.982926483154297,8.739126892089844,-1.0523117065429688
103968,1.0579998779296875,11.002869415283204,-0.12229568481445313
104037,1.0886860656738282,9.68351303100586,-0.19399658203125
104101,-0.0484991455078125,10.171947326660156,-0.25042922973632814
104168,-0.613125,9.87945556640625,0.214354248046875
104239,-0.458646240234375,9.887538757324219,-0.4071533203125
104301,-0.35281631469726565,9.221573638916016,-0.43185195922851566
104367,-0.8904981994628907,9.920769653320313,0.3534150695800781
104437,-0.5263055419921875,10.677745513916015,-0.00718505859375
104500,-0.025896148681640627,10.009385375976564,-0.09669891357421875
104568,0.5490582275390625,9.577084350585938,0.46253814697265627
104639,-0.42885818481445315,10.383158111572266,-0.20642074584960937
104701,-0.243094482421875,9.996212768554688,0.18157241821289063
104767,0.086220703125,9.48233139038086,0.36973114013671876
104837,-0.07200027465820313,10.590027923583985,0.6819818115234375
104901,-0.37736526489257816,9.427844696044922,0.30716125488281254
104967,-0.48753616333007815,9.3070458984375,0.4866380310058594
105042,-0.899329833984375,9.83155517578125,0.33066238403320314
105101,-0.48798522949218753,10.84794158935547,1.3043875122070314
105167,-0.6611750793457032,9.35823944091797,0.6048921203613281
105238,-0.27378067016601565,8.566086730957032,0.7553292846679688
105301,-0.0161663818359375,9.719138946533203,0.17333953857421877
105367,-1.0301577758789062,10.007140045166016,0.5513035583496094
105436,-0.7523355102539063,9.631870422363281,0.5240602111816407
105501,-0.9385482788085938,9.474697265625,0.7731422424316406
105567,-0.9442364501953125,9.115144958496094,0.1981878662109375
105639,-0.6767427062988282,9.402996368408203,0.771046600341797
105701,-1.2259506225585939,9.924362182617188,0.6703060913085938
105768,-1.038091278076172,10.012828216552736,0.9346563720703126
105836,-0.6683601379394531,9.841734008789063,0.4331991577148438
105903,-0.3695814514160156,9.207203521728516,0.3956272888183594
105968,-1.0159373474121094,10.416089630126953,0.496966552734375
106038,-0.8554710388183594,10.368039550781251,1.9585272216796876
106100,-0.37616775512695316,10.13617172241211,1.7110917663574219
106167,-1.139729919433594,9.420809326171875,1.1567944335937501
106236,-0.5150788879394531,9.748477935791016,1.7251625061035156
106301,-1.101409606933594,9.108558654785156,1.4647041320800782
106367,-0.8683442687988282,8.741372222900392,1.691781921386719
106441,0.12244537353515626,9.191186828613281,1.367406463623047
106501,-0.8928932189941406,9.04598876953125,1.9820283508300782
106567,-0.26809249877929686,10.652148742675783,2.602188720703125
106637,-0.35102005004882814,10.560389556884767,2.072739715576172
106701,-1.2635224914550782,8.249794464111329,1.2774435424804689
106768,-0.7092251586914062,8.745264129638672,1.101559295654297
106838,-1.1367361450195312,9.96612533569336,1.5248789978027344
106901,-0.7490423583984376,10.78522201538086,2.0300784301757813
106967,-0.29338989257812503,10.769804077148438,2.6327252197265625
107037,-0.9113049316406251,11.08220443725586,1.1602372741699218
107101,-0.9059161376953125,9.612710266113282,0.09520202636718751
107168,-1.1773017883300783,9.562414855957032,1.6575032043457032
107242,-0.3695814514160156,8.045918426513673,2.073787536621094
107301,-0.8105644226074219,9.716743927001954,2.438429260253906
107367,-0.8807684326171875,9.549092559814454,2.1071681213378906
107438,-0.7360194396972657,8.82130599975586,1.3154644775390625
107501,-1.0749147033691406,9.249116363525392,2.458786926269531
107568,-1.0515632629394531,9.67198699951172,2.336042175292969
107636,-0.6012995910644532,9.444160766601563,2.3736140441894533
107701,-0.6330335998535157,9.458830261230469,2.557581481933594
107768,-0.28680358886718754,9.635163574218751,1.657054138183594
107842,-0.8427474975585938,8.631051635742187,1.652413787841797
107961,-1.4413526916503907,9.613458709716797,2.259700927734375
107973,-1.2928614807128906,9.99531463623047,1.8940113830566407
108060,-0.41194335937500004,9.726773071289063,2.2007235717773437
108101,-0.6599775695800781,8.587492218017578,1.887125701904297
108168,-0.9630972290039063,8.65515151977539,1.8986517333984376
108244,-0.4977149963378906,8.788823547363283,1.569935302734375
108313,-0.4731660461425781,9.542356567382813,1.2611274719238281
108372,-0.2800675964355469,9.918075256347656,1.1606863403320313
108443,-0.0772393798828125,9.9584912109375,0.9934840393066406
108501,-0.5418731689453126,9.047635345458986,0.6941065979003906
108576,-0.21016296386718752,9.12068344116211,1.7010626220703127
108640,-0.16375946044921877,11.087293853759766,1.460812225341797
108744,-0.02963836669921875,9.318122863769531,1.3440550231933595
108774,0.049097900390625004,8.719218292236329,0.8023315429687501
108838,-1.1636801147460938,9.392817535400392,1.088386688232422
108901,-0.03323089599609375,7.443421325683594,0.08412506103515625
108968,0.72090087890625,9.88708969116211,0.5272036743164062
109083,-0.7122189331054688,11.602223052978516,0.8351133728027345
109103,0.41463775634765626,10.565029907226563,1.1551478576660157
109168,-0.8422984313964844,9.935588836669922,0.18052459716796876
109238,-0.37601806640625,8.329428863525392,0.6369255065917969
109301,0.3411405944824219,9.29402297973633,0.5617817687988281
109367,-1.0138417053222657,11.511361999511719,1.0572514343261719
109439,-1.1259585571289064,10.93655731201172,0.950673065185547
109533,-0.7131170654296876,10.4183349609375,0.36404296875000003
109568,-0.49412246704101564,7.820636901855469,0.11541000366210938
109638,-0.2856060791015625,9.078770599365235,1.024768981933594
109717,-0.08008346557617188,10.508447570800781,-0.1830693054199219
109811,-0.737666015625,11.60476776123047,-0.045505371093750004
109889,-1.697919158935547,8.450227661132812,0.5357359313964845
109958,-0.7605683898925781,9.310638427734375,-0.13112731933593752
110026,-1.3885125732421875,7.3164852905273445,0.209564208984375
110045,-1.0882369995117187,8.29200668334961,0.43185195922851566
110102,-1.5837066650390625,11.14402587890625,0.7990383911132813
110168,-1.4711407470703126,9.334738311767579,0.5523513793945313
110247,-1.5367044067382813,7.851472778320313,0.10942245483398438
110307,-0.7921527099609376,9.521549835205079,0.01916015625
110368,-1.7010626220703127,10.88626190185547,2.0616627502441407
110443,-1.7188755798339845,9.493707733154297,0.9978250122070313
110514,-2.168390808105469,8.67041976928711,1.804497528076172
110579,-1.40108642578125,8.318950653076172,-1.4745835876464843
110652,-1.3608201599121095,7.6721456909179695,0.4876858520507813
110701,-2.835104370117188,12.350516967773439,-1.384171600341797
110772,-1.9145187377929689,8.477770385742188,0.5912704467773438
110841,-1.397493896484375,8.907975769042968,-1.7703684997558595
110903,-1.136436767578125,8.061785430908204,0.7711962890625
110967,-3.1316377258300783,10.151140594482422,2.440375213623047
111038,-0.583187255859375,11.094478912353516,0.9297166442871094
111105,-2.1451890563964846,11.052715759277344,1.3368699645996094
111168,-1.8926641845703125,11.246113586425782,1.9426602172851564
111238,-1.7287550354003907,10.119705963134766,1.4479389953613282
111301,-2.229164428710938,9.723629608154297,-0.8099656677246094
111368,-2.3677761840820315,9.460925903320312,0.3737727355957031
111443,-2.1281245422363284,9.62124252319336,1.0431806945800781
111504,-2.501897277832031,9.591454467773438,1.1993060302734375
111635,-2.3462210083007813,9.353599090576173,1.131646728515625
111717,-2.015408935546875,9.5848681640625,1.1431727600097656
111820,-1.9043399047851564,10.839858398437501,0.7988887023925781
111849,-2.343227233886719,10.09500732421875,1.6158897399902346
111935,-2.1213885498046876,10.150392150878906,1.3537847900390625
111968,-1.937421112060547,9.04733596801758,1.044228515625
112038,-2.4409739685058596,9.137598266601563,0.8303233337402344
112102,-1.6543597412109377,8.562943267822266,0.18471588134765626
112168,-2.604434051513672,9.116492156982423,1.3668077087402344
112242,-2.206561431884766,9.23848846435547,1.0762619018554689
112304,-1.9475999450683594,9.102421417236329,1.096769256591797
112368,-2.9997619628906254,9.67153793334961,0.7375163269042969
112444,-2.825973358154297,9.244925079345704,0.6382727050781251
112503,-1.8788928222656252,9.198671264648437,1.4715898132324219
112568,-2.4501049804687502,9.93648696899414,1.1768527221679688
112642,-1.9754420471191407,10.492131500244142,1.167572021484375
112800,-1.6682807922363283,9.798773345947266,0.5643264770507813
112843,-1.5272740173339845,10.136321411132814,1.0150392150878906
112906,-2.150577850341797,9.81673599243164,1.1186238098144532
112968,-1.8555413818359376,8.967551879882812,0.8707392883300782
113043,-1.9136206054687501,8.808432769775392,0.44921585083007814
113105,-1.818867645263672,9.526040496826173,1.6989669799804688
113168,-1.7033079528808595,9.767937469482423,1.1603869628906252
113245,-1.4784754943847658,10.572664031982422,1.0856922912597657
113303,-1.1359877014160156,9.123527526855469,0.5783972167968751
113368,-1.5280224609375002,10.86470672607422,1.1822415161132813
113440,-0.9119036865234376,9.929451599121094,1.1211685180664064
113504,-1.2319381713867188,10.002350006103516,1.0867401123046876
113568,-0.6150709533691406,9.6998291015625,0.9128018188476563
113647,-1.4383589172363282,9.310039672851563,0.6845265197753907
113702,-0.9810598754882813,9.643995208740234,1.0870394897460938
113819,-0.8656498718261719,10.142608337402343,1.3479469299316407
113836,-0.931512908935547,9.67917205810547,1.0063572692871094
113921,-0.93884765625,9.88514373779297,1.3049862670898438
113968,-0.7204518127441406,9.557774505615235,1.5067666625976563
114041,-1.1606863403320313,10.068961486816407,1.3407618713378906
114101,-1.0238708496093751,9.251062316894531,1.655108184814453
114167,-1.088386688232422,10.098450164794922,1.6811540222167969
114242,-1.539847869873047,8.994795227050782,1.6127462768554688
114309,-1.1286529541015626,9.860295410156251,2.139800262451172
114368,-0.9708810424804688,8.842561798095703,2.346969451904297
114441,-0.8690927124023438,10.266999664306642,2.4733067321777344
114503,-0.47990203857421876,8.955576782226563,1.3079800415039062
114605,-0.9563612365722657,10.477312316894531,1.6569044494628906
114642,-1.0114466857910156,9.132508850097656,1.8056950378417969
114705,-0.54366943359375,10.397827606201172,1.3022918701171875
114774,-1.2569361877441407,10.609188079833984,1.7872833251953126
114841,-0.4872367858886719,9.40763671875,2.1448896789550784
114906,-0.49487091064453126,9.438472595214844,1.4784754943847658
114974,-0.7441026306152344,9.636361083984376,1.9532881164550782
115040,-0.32706985473632816,9.90624984741211,1.3430072021484376
115102,-0.3649411010742188,10.120155029296875,2.042801971435547
115168,-0.6560856628417969,9.47993637084961,1.5922389221191406
115242,-1.0689271545410157,9.491312713623048,1.9718495178222657
115301,-0.5602848815917969,10.329419860839844,2.155816955566406
115374,-0.8436456298828126,10.23047561645508,1.7372872924804688
115438,-0.7062313842773438,8.113577728271485,1.1323951721191408
115529,-1.2314891052246095,9.880802764892579,1.6226257324218751
115568,0.2775228881835938,9.560319213867189,2.259401550292969
115638,0.06316864013671876,8.934620361328125,2.8029212951660156
115707,0.04221221923828125,10.064919891357423,2.4610322570800784
115810,0.39996826171875,10.352322235107422,2.6589207458496094
115840,0.9607022094726563,10.44228515625,2.8862979125976564
115901,-0.054935760498046875,9.36737045288086,2.235451354980469
115968,-0.017214202880859376,9.142537994384766,1.6435821533203125
116048,-0.257464599609375,9.115594024658204,2.1573138427734375
116106,-0.787811737060547,8.940757598876953,2.1477337646484376
116168,0.5468128967285156,9.481433258056642,2.9695248413085937
116242,-0.17633331298828125,10.422376556396484,3.266507263183594
116301,0.15837066650390627,10.303074645996094,3.2214509582519533
116368,0.4282594299316406,9.436975708007813,2.5438101196289065
116440,0.21899459838867188,9.660311279296875,2.9174331665039066
116501,-0.202379150390625,9.589807891845703,3.1954051208496095
116568,0.30566436767578126,9.196276245117188,3.7092864990234378
116641,0.47301635742187503,9.551487579345704,4.043092346191407
116714,0.3146456909179688,9.710906066894532,3.9207966613769534
116767,-0.2977308654785156,10.134974212646485,3.502416687011719
116842,0.27497817993164064,9.159602508544923,3.3211436462402344
116903,0.31988479614257814,9.357640686035158,3.8275405883789064
116968,-0.2281256103515625,9.533824310302736,3.889661407470703
117044,-0.2571652221679688,8.984017639160157,3.690575408935547
117101,0.2639012145996094,8.017477569580079,2.9590466308593752
117168,0.760418701171875,9.245972900390626,3.2227981567382815
117238,0.6825805664062501,9.769584045410157,3.6685711669921877
117302,0.8875044250488282,9.595046997070312,4.048930206298828
117368,0.5960604858398438,9.93543914794922,3.933220825195313
117441,-0.3523672485351563,8.471034393310548,3.542084197998047
117501,-0.2890489196777344,8.256380767822266,2.100132751464844
117567,-0.17588424682617188,9.715247039794923,3.0162277221679688
117671,0.22498214721679688,9.825867004394532,2.358944549560547
117701,0.39128631591796875,10.566377105712892,3.280128936767578
117768,1.4759307861328126,9.974807281494142,2.175875244140625
117842,1.2678634643554687,9.224866790771484,2.0408560180664064
117904,0.7668553161621094,9.630972290039063,3.266656951904297
117968,1.2174183654785158,9.447154541015626,2.9439280700683597
118040,0.8126600646972657,9.001980285644532,3.087778930664063
118101,0.9419911193847657,10.467582550048828,3.2689022827148437
118168,0.9942324829101563,9.492061157226564,3.2193553161621096
118238,0.6092330932617188,8.992100830078126,2.9895831298828126
118301,1.094374237060547,9.084907836914063,2.3450234985351566
118369,1.0325527954101563,10.258916473388672,2.09564208984375
118438,0.46762756347656254,10.611433410644532,2.6012905883789066
118501,0.5049000549316407,9.328451385498047,2.2317091369628907
118568,1.7152830505371095,8.901239776611328,1.9016455078125
118638,1.815275115966797,9.667646026611328,2.451152801513672
118701,1.3846206665039062,10.147997131347656,2.549198913574219
118768,1.44419677734375,9.866282958984376,3.1057415771484376
118840,2.068997497558594,9.380692749023439,2.4764501953125
118901,2.069596252441406,9.250762939453125,1.8996995544433595
118968,2.0549267578125,9.407337341308594,1.2587324523925782
119038,1.2774435424804689,10.240654449462891,1.8865269470214845
119101,2.176024932861328,9.860445098876953,1.65016845703125
119168,2.209255828857422,9.494456176757813,1.3361215209960937
119238,2.8530670166015626,9.411828002929688,1.5419435119628908
119301,1.6049624633789064,10.229727172851563,1.1021580505371094
119368,2.9699739074707034,9.620494079589845,1.1588900756835938
119438,1.9199075317382814,10.294542388916016,1.327888641357422
119501,2.075134735107422,10.906469879150391,1.7202227783203126
119568,1.9839743041992188,10.335706787109375,1.375789031982422
119638,2.3620880126953128,10.057285766601563,1.2771441650390625
119701,1.635498962402344,9.397158508300782,1.1409274291992189
119767,1.277593231201172,10.753038940429688,1.2329859924316406
119843,1.297950897216797,9.833052062988282,1.0949729919433595
119906,0.689615936279297,9.089398498535157,1.0524613952636719
119972,0.5140310668945313,10.263706512451172,1.366208953857422
120039,-0.14953903198242188,10.489886169433595,2.598147125244141
120101,0.6541397094726563,11.238180084228516,2.271676025390625
120168,0.30551467895507817,10.005194091796875,1.8753002929687501
120237,-0.4927752685546875,8.748706970214844,2.0829185485839843
120300,0.2603086853027344,9.391919403076173,0.99872314453125
120367,-0.14265335083007813,9.871671752929688,1.6203804016113281
120438,-0.3396437072753906,9.848170623779298,2.035616912841797
120501,0.7030879211425781,9.517208862304688,2.381547546386719
120568,0.4903802490234375,9.023834838867188,2.1142034912109375
120638,0.05643264770507813,8.531209259033204,2.0179536437988284
120700,0.1728904724121094,9.49430648803711,2.2483245849609377
120768,-0.38634658813476563,10.083181915283204,1.9740948486328127
120838,-1.0642868041992188,9.569599914550782,0.36000137329101567
120901,-0.7201524353027344,10.209519195556641,-0.1646575927734375
120967,-0.3833528137207031,10.120304718017579,1.1311976623535156
121039,-1.3437556457519533,9.697134704589844,1.9387683105468752
121101,-1.3739927673339845,9.247469787597657,1.851200408935547
121167,-0.47900390625,9.453291778564454,1.3736933898925783
121238,-1.7923727416992188,8.536148986816407,0.9258247375488282
121301,-1.3000465393066407,8.957373046875,1.5621514892578126
121367,-1.99984130859375,8.919352111816407,1.8684146118164064
121438,-1.8529966735839845,10.862461395263672,2.202819213867188
121501,-2.0731887817382812,8.606802062988281,0.542471923828125
121568,-1.9342776489257814,6.746320953369141,0.1872605895996094
121639,-2.292632446289063,8.875643005371094,1.2521461486816408
121706,-3.4477803039550783,9.387578430175783,1.9833755493164062
121767,-3.467389526367188,10.008936309814453,1.896705780029297
121839,-2.3773562622070314,9.354646911621094,0.9530680847167969
121901,-2.6816734313964847,8.897347869873048,0.8343649291992188
121968,-3.1416668701171875,8.891510009765625,0.9767189025878906
122038,-4.311633911132812,8.957672424316407,1.3648617553710938
122101,-3.4286201477050784,9.486372985839845,2.480940856933594
122167,-3.2672557067871097,9.081764373779297,2.188898162841797
122239,-3.830534362792969,8.903784484863282,2.055675201416016
122301,-3.264112243652344,8.160430297851564,1.3594729614257812
122367,-3.799399108886719,8.885821838378906,1.6527131652832032
122438,-3.766916656494141,10.028994598388673,2.043849792480469
122501,-3.899840240478516,9.457033996582032,2.0784278869628907
122567,-3.2063323974609377,9.74578353881836,2.142494659423828
122638,-3.463048553466797,8.935069427490236,1.1985575866699218
122701,-2.8234286499023438,8.859925689697267,1.1319461059570313
122767,-3.504811706542969,9.492210845947266,1.0401869201660157
122838,-3.6836897277832032,9.820328521728516,1.409468994140625
122901,-3.623065795898438,9.307345275878907,0.8460406494140625
122967,-3.2986903381347656,10.036029968261719,1.5033238220214844
123038,-3.2430061340332035,9.675280151367188,0.8463400268554688
123101,-2.2519171142578127,9.099277954101563,0.9809101867675781
123167,-3.147654418945313,10.283315734863281,1.3189073181152344
123239,-1.6362474060058594,9.431736602783204,1.2582833862304688
123301,-1.8112335205078125,10.022707672119141,0.8388555908203126
123367,-0.3688330078125,9.505383453369141,1.199605407714844
123439,-1.4461427307128907,9.849667510986329,0.97477294921875
123501,-0.5849835205078125,9.866881713867189,0.48948211669921876
123567,-0.290994873046875,9.831405487060547,0.5917195129394531
123640,-0.183218994140625,10.308463439941407,0.920885009765625
123702,0.04071533203125,9.726024627685547,0.21210891723632813
123767,-0.5319937133789063,9.258546752929687,0.6587800598144532
123838,-0.5522016906738282,9.38608154296875,0.8265811157226562
123901,0.03787124633789063,8.89270751953125,0.5343887329101563
123968,0.7813751220703126,9.857301635742187,1.1776011657714844
124038,0.45385620117187503,8.986712036132813,1.4040802001953125
124101,1.1024574279785158,10.511591033935547,1.244362335205078
124168,2.532433776855469,11.312425689697266,1.893113250732422
124238,2.112257537841797,10.92458221435547,1.7625846862792969
124301,1.4088702392578125,9.696086883544922,1.2078382873535156
124367,2.3092478942871093,9.285191345214844,0.8705895996093751
124438,2.4336392211914064,8.744964752197266,0.18127304077148437
124501,1.7488133239746095,8.773555297851562,-0.00239501953125
124568,1.848805389404297,9.117240600585937,1.1752061462402343
124638,2.5267456054687503,10.049202575683594,1.6887881469726564
124701,1.8359321594238283,11.410172424316407,2.7331663513183595
124767,0.7535330200195313,11.245963897705078,2.8421397399902344
124839,0.4481680297851563,11.026520233154297,2.178270263671875
124901,1.6130456542968752,8.308921508789062,2.2347029113769534
124968,-0.0029937744140625003,9.531429290771484,1.093027038574219
125038,-0.1754351806640625,9.104666748046876,0.7966433715820312
125101,-0.14190490722656252,9.13310760498047,1.1770024108886719
125168,0.6647676086425781,9.307195587158203,1.4750326538085938
125238,-0.3008743286132813,9.341324615478516,1.5429913330078127
125301,-0.33679962158203125,10.321935424804687,2.0579205322265626
125367,-0.3031196594238281,10.894794158935547,2.072590026855469
125439,-0.27258316040039066,9.917476501464844,1.4235397338867188
125501,0.024548950195312502,9.214837646484375,1.2879217529296876
125567,-0.22348526000976562,9.829160156250001,1.5277230834960938
125638,0.45161087036132813,9.153465270996094,1.0804531860351563
125701,0.978365478515625,9.769434356689453,1.4329701232910157
125768,-0.03667373657226563,10.114017791748047,1.5022760009765626
125838,-0.36553985595703126,9.167835388183594,2.047592010498047
125901,0.041912841796875,9.965077514648438,2.508932647705078
125968,0.444276123046875,9.133406982421876,2.3436763000488283
126038,-0.2219883728027344,11.580218811035158,-0.22962249755859376
126101,-0.5110372924804688,10.989696807861328,-1.0472222900390626
126167,-0.6363267517089845,10.24304946899414,0.002544708251953125
126238,0.07768844604492188,9.432335357666016,0.11690689086914063
126301,-1.5739768981933595,9.523795166015626,0.465831298828125
126367,-0.3309617614746094,9.870174865722657,0.07858657836914062
126438,-0.7714956665039063,9.408534851074219,0.7635621643066407
126501,-1.402134246826172,10.25637176513672,0.7319778442382813
126567,-1.3485456848144532,9.413474578857423,0.17513580322265626
126638,0.32871643066406253,10.304122467041017,-0.5276527404785156
126701,-1.2600796508789063,10.18497024536133,0.7926017761230469
126768,-0.19848724365234377,9.748028869628907,0.10163864135742189
126838,-1.2527449035644531,9.501790924072266,0.6459068298339844
126901,0.74006103515625,9.72572525024414,0.6180647277832032
126967,-0.9187893676757813,9.098379821777344,1.404529266357422
127038,0.07738906860351563,10.271939392089845,1.5401472473144533
127101,-0.8020321655273438,9.754615173339845,-0.025297393798828127
127167,-0.5813909912109375,9.387578430175783,0.5342390441894531
127238,-0.8536747741699219,10.195149078369141,0.5836363220214844
127301,-0.7391629028320312,9.888137512207031,0.645457763671875
