relative_time,AccX,AccY,AccZ,LinearAccelerometerSensor
0,-0.25776397705078125,10.379864959716798,0.7351213073730469,0.128044815282776
49,0.10074050903320313,9.929152221679688,0.6617738342285157,0.1131820156723547
102,-0.10747650146484375,9.878557434082031,0.67060546875,0.048685491983505316
169,0.04939727783203125,10.018666076660157,0.670455780029297,0.04044260297527034
235,0.10148895263671875,9.77736785888672,0.6855743408203125,0.05768492091141872
302,-0.16390914916992189,9.680369567871095,0.62989013671875,0.07301776732538459
396,-0.02784210205078125,9.702074432373047,0.6150709533691406,0.020366941860530237
435,0.002245330810546875,9.408534851074219,0.6493496704101562,0.07568650975255617
502,-0.12169692993164063,9.759255523681642,0.7182064819335938,0.07688335776776535
570,-0.08666976928710939,9.435478820800782,0.6914122009277344,0.06466336088041592
635,-0.02125579833984375,9.93214599609375,0.6689588928222656,0.11160066562787882
702,0.026195526123046875,9.601184234619142,0.6123765563964844,0.060720973737339354
769,-0.04939727783203125,10.009385375976564,0.6902146911621094,0.09062261808828119
835,-0.09250762939453125,9.479187927246095,0.6951544189453125,0.11156165735335499
902,-0.1167572021484375,10.043215026855469,0.7141648864746094,0.11394727878010591
969,-0.04879852294921875,9.528136138916016,0.623902587890625,0.10363956105520415
1035,-0.009580078125,10.070158996582032,0.6890171813964844,0.11175962180648931
1102,-0.04805007934570313,9.496551818847657,0.6658154296875001,0.11601078802813139
1169,-0.07349716186523438,9.850565643310548,0.7235952758789063,0.06161657447133843
1235,-0.10612930297851562,9.388775939941407,0.6559359741210938,0.10196590555804183
1302,-0.14579681396484376,10.017618255615234,0.6803352355957032,0.1326844762073808
1368,-0.016615447998046876,9.4507470703125,0.6608757019042969,0.11262692759642028
1435,0.0305364990234375,10.05084915161133,0.7020401000976563,0.124667167283025
1502,-0.05553451538085938,9.490564270019531,0.7313790893554688,0.11105316939743777
1569,-0.13172607421875002,10.19170623779297,0.7075785827636719,0.14980100459198586
1635,-0.09729766845703125,9.385333099365235,0.5936654663085937,0.16722864455290407
1702,-0.006885681152343751,10.236463165283203,0.7265890502929688,0.1751298011901876
1769,-0.09684860229492188,9.483079833984375,0.6716532897949219,0.14656978699111017
1836,-0.02664459228515625,10.314450988769531,0.6869215393066407,0.1720164674377272
1902,-0.08831634521484376,9.448052673339845,0.6849755859375001,0.1741476706381767
1969,-0.022902374267578126,10.378817138671875,0.719703369140625,0.18992686605142517
2036,-0.116158447265625,9.624984741210938,0.6656657409667969,0.14300072483025691
2102,-0.04445755004882813,10.302026824951172,0.7394622802734375,0.13549989257303618
2168,-0.17887802124023439,10.018666076660157,0.7162605285644532,0.04817523366844236
2235,-0.10388397216796875,10.12225067138672,0.7503895568847657,0.021531193923202997
2302,-0.12214599609375,10.269544372558594,0.6994953918457032,0.04147625831846852
2369,-0.1681004333496094,9.713001708984375,0.6267466735839844,0.13381864402811475
2435,-0.09131011962890626,9.97959732055664,0.7167095947265625,0.04024070126394341
2502,-0.13127700805664064,9.41916275024414,0.6697073364257813,0.13190085702756688
2569,-0.14280303955078125,10.271041259765626,0.7234455871582032,0.18051007393508642
2635,-0.1471440124511719,9.44071792602539,0.7559280395507812,0.16294210251959496
2702,0.038769378662109374,10.225835266113283,0.9211843872070313,0.1681497037611649
2770,-0.06795867919921875,9.712253265380859,0.9050180053710938,0.09103465363799344
2835,0.10807525634765626,10.228829040527344,0.9222322082519532,0.11425266098485355
2902,-0.03397933959960937,9.632169799804688,0.7782316589355469,0.12975766485880857
2969,-0.12843292236328124,10.252779235839844,0.8695417785644531,0.12887725964447627
3035,-0.21001327514648438,9.722282409667969,0.9430389404296875,0.10751239422365506
3102,-0.003742218017578125,10.057435455322267,0.8743318176269532,0.08459203883281348
3169,0.0209564208984375,9.822723541259766,0.6962022399902345,0.06288884674157072
3235,-0.5391787719726563,10.030491485595704,0.1429527282714844,0.207750213489585
3302,-0.6150709533691406,10.005792846679688,-0.14699432373046875,0.12227819461641827
3369,-0.3841012573242188,9.292825469970703,-0.0007484436035156251,0.18291865992826337
3435,-0.31748977661132816,8.603059844970703,0.1335223388671875,0.22143637977718603
3502,-0.3426374816894531,10.913056182861329,-0.31988479614257814,0.5336228523133124
3569,-0.48154861450195313,9.78365478515625,-0.31853759765625,0.15753552783367086
3636,-0.5068460083007813,9.972561950683595,0.22079086303710938,0.12959861310117846
3702,-0.29069549560546876,10.564580841064453,0.3695814514160156,0.17301470074082972
3769,-0.39038818359375,9.49475555419922,-0.09205856323242188,0.2502280201019659
3835,-0.6125262451171876,9.496402130126954,0.0161663818359375,0.08184338208219463
3902,-0.7915539550781251,10.25203079223633,-0.13846206665039062,0.18958894868903534
3969,-1.1451187133789062,9.773475952148438,-0.7527845764160157,0.20602497417689367
4036,-1.0364447021484375,10.201585693359375,-0.8330177307128906,0.10702512236673352
4102,-0.8726852416992188,10.18931121826172,-0.871787109375,0.05193735038843655
4169,-0.8711883544921876,9.801467742919922,-1.026265869140625,0.10311154924253144
4235,-1.1385324096679688,9.905651092529297,-1.1042536926269533,0.0711850900162739
4302,-0.7530839538574219,10.014624481201173,-0.908909912109375,0.09449616477566719
4370,-0.6457571411132813,9.90624984741211,-1.009500732421875,0.027779856849770964
4435,-0.6391708374023438,9.956844635009766,-0.7839198303222656,0.07090785370483021
4502,-0.5788462829589844,9.780810699462892,-1.0448272705078125,0.07139794139268127
4569,-0.6315367126464844,9.279353485107423,-1.1693682861328125,0.14298934202852762
4635,-0.5668711853027344,9.827513580322266,-0.841699676513672,0.12594698854920905
4702,-0.33979339599609376,9.945917358398438,-0.4638853454589844,0.14859778204221674
4769,-0.0161663818359375,10.513986053466798,0.16630416870117187,0.2555847299671011
4836,-0.14040802001953126,9.724976806640626,1.080004119873047,0.31733072470547447
4902,-0.23186782836914063,10.48105453491211,0.9011260986328126,0.15350279379863638
4969,-0.3487747192382813,10.94329330444336,-0.678988037109375,0.4195228016397394
5035,-0.26375152587890627,10.403515777587891,-0.17947677612304688,0.10133615401457793
5102,-0.21570144653320314,10.25592269897461,-0.389190673828125,0.07765813528119576
5169,-0.030237121582031252,8.140372009277344,-1.8994001770019533,0.6476041910891576
5236,-0.10388397216796875,9.02248764038086,-1.686991882324219,0.1329396906987571
5302,-0.23096969604492187,9.836045837402343,-1.7205221557617187,0.2266064002361045
5369,0.13127700805664064,9.790540466308594,-2.142644348144531,0.14895079695928895
5435,-0.0700543212890625,9.29791488647461,-2.4077430725097657,0.14918934465114916
5502,0.07798782348632813,9.412127380371095,-2.5340803527832034,0.06273975678694159
5569,-0.19115249633789064,10.001900939941407,-2.083517303466797,0.18743016165955648
5635,-0.37676651000976563,10.062824249267578,-1.2702584838867188,0.24182254397168226
5702,-0.015867004394531252,9.816586303710938,-1.6182847595214844,0.09414219037665071
5769,-0.42945693969726567,9.376800842285157,-2.18665283203125,0.210833901034443
5835,-0.5736071777343751,10.163564758300781,-2.115700378417969,0.17683902375390587
5902,-0.30446685791015626,10.716215515136719,-1.4880555725097657,0.24125542182112877
5970,-0.9765692138671875,9.908345489501954,-1.6476237487792968,0.16636920421864634
6035,-0.2890489196777344,9.552086334228516,-2.364782409667969,0.30033643352549755
6101,-0.6737489318847657,10.017468566894532,-1.6256195068359376,0.16703638066284449
6169,-0.7354206848144531,9.711504821777345,-2.292632446289063,0.14808676819281374
6235,-0.9249266052246095,9.542805633544923,-2.542163543701172,0.12408671686659578
6302,-0.14100677490234376,10.267299041748048,-2.274969177246094,0.2507445191191787
6369,0.05718109130859375,10.5141357421875,-1.3949491882324219,0.27015201728634514
6435,-0.12319381713867188,10.091265106201172,-1.1656260681152344,0.16135924945886826
6502,-0.3082090759277344,9.793983306884765,-0.19893630981445312,0.2864887901676331
6569,-0.0059875488281250005,9.777966613769532,-0.09984237670898438,0.12134954293855955
6635,0.024099884033203126,10.09351043701172,-0.11885284423828125,0.07869238516478735
6702,-0.8702902221679688,10.014774169921875,-0.30192214965820313,0.22098862663082752
6769,-0.5872288513183594,9.748028869628907,-1.0029144287109375,0.22313352831962502
6835,-0.24593856811523437,9.497000885009767,-0.8367599487304688,0.0831189834867586
6902,-0.5604345703125,9.614955596923828,-0.6270460510253907,0.08945468225408856
6969,0.6417155456542969,9.828411712646485,-0.5944139099121094,0.28857647347449367
7036,-0.7035369873046875,10.821296997070313,-0.4436773681640625,0.3757400198210028
7102,-0.5746549987792969,10.766959991455078,0.49097900390625004,0.25218813903511317
7169,0.1383123779296875,9.222471771240235,-0.6324348449707031,0.4650964995940337
7236,-0.09265731811523438,9.107361145019532,-0.5309458923339844,0.17778020397872477
7302,-0.09041198730468751,9.302854614257813,0.27931915283203124,0.21382344834496453
7370,0.7450007629394532,9.592202911376953,1.4289285278320314,0.41430812351628465
7436,0.784368896484375,10.277178497314454,0.4435276794433594,0.25895078129946997
7502,-1.268162841796875,10.217752075195312,-0.5830375671386719,0.5794694215488521
7569,-0.41703277587890625,9.868977355957032,-1.1457174682617188,0.3084659869574365
7636,-0.3043171691894531,9.914782104492188,-0.2915936279296875,0.16448266113944457
7702,0.20207977294921875,10.11701156616211,-0.49487091064453126,0.21064785920152224
7769,0.2173480224609375,9.84592529296875,-0.8078700256347656,0.1739633922691033
7835,-0.30865814208984377,9.674082641601563,0.1484912109375,0.26376009151596097
7902,-0.542322235107422,9.201365661621095,-0.17588424682617188,0.16669941087345888
7970,0.7313790893554688,10.154433746337892,-0.9621990966796875,0.4128620452799923
8035,-0.6309379577636719,9.557325439453125,-0.4507127380371094,0.2943864038246757
8102,0.3737727355957031,9.074579315185547,-0.4592449951171875,0.23548611304629716
8169,1.347048797607422,8.526119842529297,0.15103591918945314,0.37211047593599744
8235,-0.6511459350585938,9.854307861328126,1.3012440490722657,0.6104129955080232
8302,1.0653346252441407,10.598859558105469,1.199605407714844,0.41687455064609713
8369,-0.09909393310546875,10.101294250488282,1.2576846313476564,0.22071784015980553
8436,0.2710862731933594,10.030341796875,1.407223663330078,0.06815389886675975
8502,1.4923965454101564,9.440418548583985,0.7285350036621094,0.38572082633381466
8569,0.054636383056640626,9.777667236328126,0.5950126647949219,0.2934897873109152
8635,0.17184265136718752,9.476194152832031,0.9638456726074219,0.10600238515357821
8702,0.38275405883789065,9.5657080078125,0.8984317016601563,0.043043009558154946
8770,-0.020507354736328125,9.910890197753906,0.865799560546875,0.12615955793717698
8836,0.05643264770507813,9.489217071533204,1.0704240417480468,0.09767259393129965
8902,-0.1273851013183594,9.736652526855469,1.1732601928710937,0.08091384289995675
8969,0.3279679870605469,9.892927551269532,1.127904510498047,0.11081334465236764
9035,0.3779640197753906,10.158774719238282,1.299298095703125,0.09693561177401556
9102,-0.12828323364257813,10.398426361083985,1.0021659851074218,0.1553640856359358
9169,-0.15896942138671877,10.449170837402344,1.4917977905273438,0.1173413010035195
9236,0.041164398193359375,10.462343444824219,1.4199472045898438,0.04323825513401133
9302,1.5383509826660158,9.34342025756836,0.7677534484863282,0.503959721384936
9369,-0.37092864990234375,9.944719848632813,0.5906716918945313,0.4183091413574966
9436,-0.6081852722167969,10.129884796142578,0.5152285766601563,0.17775082553732252
9502,-0.6571334838867188,9.513915710449218,0.11481124877929688,0.184525829612624
9569,0.7466473388671876,10.919043731689454,0.8265811157226562,0.4870322195745262
9635,0.4201762390136719,9.911938018798828,0.9870474243164064,0.18921451984221613
9702,0.44083328247070314,9.364077301025391,-0.1143621826171875,0.31301887696632563
9769,-1.1259585571289064,10.3416943359375,-0.17618362426757814,0.4453537740243078
9836,0.3972738647460938,10.771600341796876,-0.3634442138671875,0.3307975930072047
9902,-0.74964111328125,10.421927490234376,0.10463241577148438,0.2429038384898198
9969,0.3406915283203125,7.895780639648438,-2.1475840759277345,0.86681232445451
10035,-0.7134164428710937,8.492589569091797,-0.3960763549804688,0.3685218977489874
10103,-0.5777984619140625,9.722282409667969,0.3251239013671875,0.39833084740916863
10169,1.1847862243652345,10.208471374511719,-0.28770172119140625,0.48701192019327866
10235,-1.4331198120117188,9.913584594726563,-0.9846524047851563,0.5802938488306131
10302,0.3035687255859375,9.587562561035156,0.5346881103515625,0.4535679164557607
10369,-1.535357208251953,11.794872436523438,-0.7490423583984376,0.6971620064548382
10435,0.5031037902832032,8.964707794189454,-1.7428257751464844,0.772253263617505
10502,1.1020083618164063,8.39544158935547,-1.683549041748047,0.38696698117028067
10569,-0.9111552429199219,9.954898681640625,-0.6556365966796875,0.5943546473708388
10636,-0.45101211547851566,9.812694396972656,-0.03697311401367188,0.2195442034461058
10702,0.0173638916015625,9.774972839355469,-0.9160949707031251,0.2038960978977548
10769,-0.41613464355468754,10.31145721435547,-0.6328839111328125,0.15861944310268067
10835,-0.7801776123046875,10.822195129394531,-0.3010240173339844,0.21547686753530648
10902,-0.17333953857421877,10.239007873535156,-1.131497039794922,0.2564633479589255
10969,-0.35161880493164066,9.592202911376953,-1.2900173950195313,0.2085981952156685
11036,-0.32183074951171875,9.593699798583986,-0.6599775695800781,0.14381208912612187
11102,-0.28575576782226564,9.270222473144532,-0.45385620117187503,0.12634305212666266
11169,-0.67060546875,10.616073760986328,-0.4592449951171875,0.32771826067478094
11235,-0.6364764404296875,9.447753295898439,-1.139879608154297,0.27052864628398376
11302,0.8053253173828125,9.859097900390626,-1.2954061889648438,0.3689331357620032
11370,-0.4393363952636719,9.272018737792969,-0.12633728027343752,0.3761029895039648
11436,0.07933502197265625,9.733209686279297,0.11451187133789063,0.16919772304105699
11502,0.33485366821289064,9.454788665771485,0.5679190063476562,0.1742383265300761
11569,0.3035687255859375,9.72707244873047,0.7255412292480469,0.0949418736849908
11635,0.10627899169921876,10.287357330322266,1.1731105041503906,0.20728096310095445
11702,0.3806584167480469,9.650581512451172,0.7632627868652344,0.14997093220379468
11769,0.30790969848632815,9.618997192382812,0.9620494079589844,0.044633992177110685
11836,0.6264472961425781,9.800569610595703,0.737666015625,0.09836762244691742
11902,0.46643005371093754,9.690099334716797,0.738713836669922,0.031052136974634003
11969,0.0718505859375,10.146799621582032,1.4599140930175782,0.23272039119748983
12036,0.23022125244140626,10.240804138183595,1.5920892333984376,0.09354890716092623
12102,0.25731491088867187,9.464518432617188,1.4120137023925783,0.18344453847420644
12169,-0.523311767578125,9.542955322265625,1.3510903930664062,0.195526533468415
12236,-0.8267308044433594,9.550140380859375,1.5163467407226563,0.12918338001774796
12302,-0.6375242614746094,9.345665588378907,1.6206797790527345,0.06502097969064143
12369,-1.3756393432617189,9.915231170654298,1.7792001342773438,0.22722195643463144
12436,-0.611927490234375,9.86553451538086,1.7619859313964845,0.14737331383848837
12502,-0.8536747741699219,10.296937408447267,1.9734960937500001,0.1277149960691727
12569,0.93166259765625,10.678194580078125,1.2368778991699219,0.4880655795714265
12636,0.2377056884765625,10.928174743652344,1.282383270263672,0.11711002737811711
12702,0.37437149047851564,10.069410552978516,0.75443115234375,0.23768128425973964
12769,-0.3405418395996094,9.05272476196289,0.5504054260253907,0.35906184952366765
12836,1.366208953857422,8.914412384033204,0.8984317016601563,0.40399798613710136
12902,-0.9598040771484375,9.291029205322266,0.8223898315429687,0.4902721221234185
12970,0.9943821716308594,10.095606079101563,1.5712825012207032,0.46585411431737717
13036,1.462009735107422,10.48105453491211,0.904119873046875,0.28413083263641875
13102,0.5625302124023438,8.242609405517578,0.5411247253417969,0.5628516991560634
13169,-0.09071136474609376,9.518106994628907,1.0385403442382812,0.2949495316940793
13235,-0.14504837036132814,10.516081695556641,1.4435980224609375,0.3283217249456312
13302,0.07035369873046875,10.180030517578125,1.1457174682617188,0.05813321600748736
13370,-0.18052459716796876,9.503736877441407,1.0011181640625,0.18567729882671374
13436,-0.4876858520507813,9.11260025024414,1.2889695739746094,0.17758542093772003
13502,0.011376342773437501,9.195078735351563,1.5307168579101564,0.127916471297335
13569,-0.0061372375488281256,10.493628387451173,1.5703843688964845,0.32298418791845834
13635,-0.5394781494140626,9.09673324584961,1.5453863525390625,0.2978959721691021
13702,-0.4409829711914063,9.77302688598633,-0.082628173828125,0.4193840757804871
13769,-0.6855743408203125,9.608818359375,0.2424957275390625,0.14271407740079325
13836,-0.5126838684082031,9.706714782714844,0.5164260864257812,0.10841272235695953
13902,-0.9437873840332032,9.963131561279297,0.08756790161132813,0.14355528393321365
13969,-0.4805007934570313,9.780361633300782,0.4712200927734375,0.12256686148114565
14036,-0.7146139526367188,8.949589233398438,0.5854325866699219,0.22259661502625128
14103,-0.2881507873535156,9.758357391357423,1.264420623779297,0.25407619623303
14169,0.05134323120117188,10.291698303222656,1.119671630859375,0.20272162145781406
14235,-0.22962249755859376,10.977871398925782,0.7758366394042969,0.160283971010208
14302,-0.18217117309570313,9.355095977783204,0.19175125122070313,0.3336586774129938
14369,0.6248007202148438,8.6077001953125,-0.6972500610351563,0.42145124706480785
14436,-0.16615447998046876,10.759774932861328,0.41433837890625,0.5390227185936269
14502,1.089584197998047,10.85512664794922,0.9123527526855469,0.35847554032617607
14569,1.314716033935547,9.456135864257813,0.8014334106445313,0.33204961292240825
14636,1.3650114440917969,9.102870483398437,0.48454238891601564,0.1892929929154707
14702,1.093326416015625,9.85550537109375,0.3276686096191406,0.1657383729929052
14769,1.1970606994628907,10.672955474853516,0.7994874572753906,0.2627147025681623
14836,0.6177653503417969,11.476185150146485,0.7622149658203126,0.29748731514741045
14902,1.9053877258300782,10.056537322998047,0.26539810180664064,0.4247118063608995
14969,1.3260923767089845,9.019194488525391,-0.24923171997070315,0.37495437796870507
15036,1.6780105590820313,9.476643218994141,-0.22423370361328127,0.12229184465736434
15102,0.4818479919433594,9.430389404296875,0.15343093872070312,0.29889943410251407
15170,1.7329463195800783,10.281220092773438,-0.384400634765625,0.33385562623477666
15236,-0.05718109130859375,9.845176849365235,-0.137713623046875,0.3928426415018073
15302,0.0089813232421875,10.224039001464844,-0.3854484558105469,0.1252774504438037
15370,-0.047151947021484376,9.88229965209961,-0.5667214965820313,0.11130486399143989
15436,1.0536589050292968,9.887688446044923,-0.6611750793457032,0.18859811320477676
15502,-0.2647993469238281,9.790091400146485,-0.17738113403320313,0.3055300243957725
15569,1.268162841796875,9.874366149902345,-0.6584806823730469,0.32607339696766324
15636,0.29189300537109375,10.64960403442383,0.1484912109375,0.31358151898803277
15703,0.3350033569335938,10.055788879394532,-0.3770658874511719,0.1352848745884189
15769,0.37676651000976563,9.522747344970703,-0.41194335937500004,0.16096538758525872
15836,0.7168592834472657,9.739496612548828,-0.09789642333984376,0.04334164298957927
15902,-0.5059478759765625,9.445507965087891,0.14265335083007813,0.2909214447428367
15969,-0.1383123779296875,9.616153106689454,0.20073257446289064,0.06090644019648115
16036,-1.7944683837890625,10.194999389648437,0.4662803649902344,0.44083639825927246
16102,-0.21345611572265627,9.620494079589845,-0.35835479736328124,0.3636213882094498
16169,-1.580413513183594,9.380393371582032,-1.063089294433594,0.5361306667859954
16236,-0.6279441833496094,9.690099334716797,-0.29294082641601565,0.3612924404997706
16302,-0.8851094055175782,11.257340240478516,0.6303392028808594,0.484984538120747
16369,0.6912625122070313,9.421108703613282,-0.09445358276367188,0.5477266629416901
16436,-0.9788145446777344,10.232870635986329,0.4110452270507813,0.35136965929894776
16502,-1.2540921020507814,10.859766998291017,0.040415954589843754,0.2468019424033838
16570,0.7530839538574219,10.685229949951172,-0.9033714294433595,0.529138565925333
16636,-1.2008029174804689,9.383836212158204,-0.8427474975585938,0.6829457027695406
16703,-1.4679972839355468,10.195897521972658,0.5539979553222657,0.17797937411851014
16769,0.659827880859375,10.89015380859375,1.0361453247070314,0.5845600786207278
16836,-0.009430389404296876,9.497150573730469,-0.3668870544433594,0.4328761226115991
16902,-1.1394305419921875,9.756261749267578,0.19728973388671875,0.2983027819957148
16970,-1.768721923828125,9.749974822998047,-0.31569351196289064,0.28526570847511207
17036,1.0271640014648438,9.215735778808595,-0.429906005859375,0.6811966278568904
17103,0.06301895141601563,9.237141265869141,-0.43304946899414065,0.08125939057182266
17169,-1.3076806640625,10.619217224121094,-0.34278717041015627,0.4954532916614536
17236,-0.20866607666015627,8.992549896240234,-0.4367916870117188,0.37159395756278757
17303,1.787882080078125,10.181078338623047,0.3499722290039063,0.617310706190019
17370,0.14684463500976563,10.925180969238282,0.30371841430664065,0.36614495549808257
17435,-1.56873779296875,10.07629623413086,0.4643344116210938,0.5224692383554578
17502,1.8100360107421876,9.761800231933595,1.5696359252929688,0.7847457782017295
17569,-2.055974578857422,10.534343719482422,0.6545887756347657,0.818449450077278
17635,1.2132270812988282,9.864337005615235,1.0365943908691406,0.6359592833491381
17702,-1.0451266479492187,12.404105529785157,2.1049227905273438,0.7814507480389259
17770,1.6221766662597656,9.622889099121094,1.165027313232422,0.8013752967732359
17836,-0.5300477600097656,9.177714843750001,0.8421487426757813,0.4833527550692246
17903,0.0700543212890625,7.59745101928711,1.3763877868652346,0.4711493799920547
17970,0.25387207031250003,8.229137420654297,2.2210812377929687,0.24797595318712537
18036,-0.22588027954101564,10.535391540527344,1.3962963867187501,0.6146709901192088
18103,1.232237548828125,7.596103820800781,2.398761749267578,0.711206817896731
18169,-1.3950988769531252,10.916349334716797,1.7067507934570314,0.8991018569306145
18236,1.8459613037109377,10.295141143798828,0.6442602539062501,0.7298710735345405
18303,-0.24414230346679688,7.543263702392578,0.8845106506347656,0.771186924270757
18370,-0.19175125122070313,8.793014831542969,0.7336244201660157,0.1656609964166149
18436,-0.7286846923828125,8.748856658935548,0.33260833740234375,0.1904723243718007
18503,-0.21764739990234377,9.669741668701173,1.2687615966796875,0.32625507068373644
18570,-0.16914825439453127,10.88581283569336,2.0677999877929687,0.44295337810402996
18636,-0.6197113037109375,9.812993774414062,1.4160552978515626,0.2287378600081409
18703,0.18441650390625,9.641899566650391,1.5563136291503907,0.19577356968893345
18770,-0.023950195312500002,9.171727294921876,1.0147398376464845,0.19271522852782733
18836,-0.19564315795898438,10.0255517578125,1.2602293395996094,0.18634616835516632
18903,-0.04775070190429688,9.882149963378907,1.139879608154297,0.035642830190952636
18970,0.07858657836914062,9.472451934814453,0.6583309936523438,0.16553998579440019
19036,-0.46119094848632813,10.293195190429689,1.3931529235839843,0.26709050106168947
19103,0.21151016235351563,8.943601684570313,0.520916748046875,0.36959748087859806
19170,-0.4680766296386719,10.404114532470704,1.410516815185547,0.3676510391106961
19236,0.3921844482421875,11.659853210449219,2.2254222106933597,0.4940438593570051
19303,-0.49831375122070315,10.910810852050782,2.0793260192871097,0.2007332223407947
19370,0.41808059692382815,7.571255493164063,1.2617262268066407,0.8992733805647289
19436,-1.7004638671875,8.680448913574219,0.9909393310546876,0.5014125568619865
19503,-0.8734336853027345,9.75296859741211,0.8972341918945312,0.4204258378663116
19570,0.7057823181152344,8.823551330566406,0.7988887023925781,0.34634870900575193
19636,0.20567230224609376,10.600655822753907,-0.8973838806152344,0.6177286134229397
19703,-0.42302032470703127,11.560459899902344,0.30072463989257814,0.42373043576958547
19771,1.1473640441894533,11.459120635986329,1.1651770019531251,0.44097267998612866
19837,1.009650421142578,8.9142626953125,0.4878355407714844,0.632080213113446
19904,-0.942440185546875,9.170380096435547,0.16555572509765626,0.4950723145750513
19971,-1.1346405029296875,10.870843963623047,1.494342498779297,0.5319922300077626
20037,1.257235565185547,9.993817749023439,0.24069946289062502,0.61620962399647
20104,-0.28291168212890627,10.32537826538086,0.8038284301757813,0.2645342311221571
20170,-0.7132667541503906,9.535620574951173,0.9511221313476563,0.256449066621183
20237,0.00239501953125,9.712852020263673,0.2477348327636719,0.21159368224796585
20304,0.7000941467285157,9.786798248291015,0.4999603271484375,0.1218577069291273
20371,-0.04071533203125,9.881251831054689,0.23321502685546877,0.093754565367859
20437,-0.15702346801757813,10.942694549560548,0.9376501464843751,0.31958569524893865
20504,0.738863525390625,9.753717041015625,-0.19100280761718752,0.3952886915028464
20571,0.6867718505859375,9.343270568847657,0.4984634399414063,0.19923571086707018
20637,0.6234535217285156,10.796598358154297,0.5906716918945313,0.327409286883083
20704,0.5346881103515625,10.08393035888672,0.6542893981933594,0.104177428249368
20771,0.9958790588378906,9.178313598632814,-0.32168106079101566,0.3618308608590428
20837,0.018411712646484377,9.837093658447266,0.1980381774902344,0.25001124679074865
20904,0.5068460083007813,9.446855163574218,0.4381388854980469,0.1258352503060487
20971,0.861009521484375,9.923164672851563,0.23261627197265627,0.14955261157672764
21037,0.4228706359863281,9.136700134277344,0.41448806762695317,0.19411596532746428
21104,0.9213340759277344,9.048982543945312,-0.11002120971679688,0.1726253817501679
21171,1.4659016418457032,11.049272918701172,0.6623725891113281,0.5356067180687359
21237,1.2618759155273438,11.242521057128906,0.6677613830566407,0.08154819706070811
21304,0.9595046997070313,9.14942367553711,0.40894958496093753,0.4168265058056631
21371,1.8302439880371095,9.807155914306641,-0.1477427673339844,0.25796644623119247
21437,1.205892333984375,9.785151672363282,0.15432907104492188,0.11337094313264863
21504,1.0202783203125,10.931916961669922,1.5033238220214844,0.45729833840402234
21571,0.57240966796875,11.67287612915039,0.6352789306640625,0.3166826243198969
21637,1.561552734375,10.68268524169922,1.3918057250976563,0.32273945189075803
21704,1.3226495361328126,9.089248809814453,0.7226971435546875,0.462304266664188
21771,0.18965560913085938,10.420131225585939,1.0457254028320313,0.3641499753254282
21837,-0.024998016357421875,10.09111541748047,1.2528945922851562,0.1428315604479691
21904,0.9210346984863281,9.2591455078125,0.5682183837890625,0.3351446709198342
21971,0.5325924682617188,9.341773681640625,0.9119036865234376,0.07353652409066705
22038,0.2177970886230469,10.744806060791015,0.40745269775390625,0.3721645674356189
22104,1.1678713989257814,10.966345367431641,1.370849304199219,0.3334042569871663
22171,1.498982849121094,11.942764892578126,0.4531077575683594,0.35747060673408365
22238,-0.2664459228515625,10.46279251098633,-0.056582336425781254,0.5341749132647167
22304,0.5194198608398438,9.613009643554689,0.6363267517089845,0.32954267911912855
22372,0.9122030639648437,10.27313690185547,0.0676593017578125,0.18851177892597168
22438,1.6167878723144533,11.488459625244142,0.8759783935546875,0.42451281490540843
22505,-0.7538323974609376,9.553433532714845,1.2528945922851562,0.6879569987374209
22572,0.47301635742187503,6.977739715576172,-0.9503736877441407,0.9220442599695897
22638,1.0374925231933594,6.738088073730469,-0.7809260559082032,0.31921116509439396
22705,0.04999603271484375,10.623558197021485,0.9054670715332032,1.0139708798057037
22772,1.32205078125,11.635753326416015,2.3071522521972656,0.7109632398604285
22838,2.369572448730469,10.35456756591797,3.0326934814453126,0.44363362776334475
22905,-0.6456074523925781,10.158325653076172,1.4159056091308595,0.7784754595534882
22972,-1.2638218688964844,8.14635955810547,2.2281166076660157,0.6542481341882149
23037,-0.8945397949218751,8.921298065185548,1.4389576721191406,0.17628508338511528
23104,-0.3020718383789063,8.997789001464843,2.5632696533203125,0.2848568672672693
23172,-1.0436297607421876,7.907905426025391,2.677482147216797,0.2816722366654902
23238,0.16705261230468751,7.7655514526367195,2.1281245422363284,0.25002507953864306
23305,-0.38320312500000003,10.019564208984375,3.287014617919922,0.6055166855118035
23372,-0.6258485412597656,10.23047561645508,4.296215972900391,0.3783206472828632
23438,0.18336868286132812,10.907218322753907,3.8336778259277344,0.2845684579092415
23504,1.5114070129394532,8.829688568115234,3.959116973876953,0.5996177213946379
23572,-2.0350181579589846,8.70634506225586,3.2434552001953127,0.8242328840097055
23638,-0.281414794921875,7.778574371337891,2.947071533203125,0.2850148086899365
23705,0.06795867919921875,8.679999847412109,3.0228140258789065,0.1508926745233333
23772,-0.22183868408203125,9.087602233886718,3.5813026428222656,0.178973398466195
23838,0.28725265502929687,10.524464263916016,4.048181762695313,0.43157695351486247
23904,1.030906219482422,8.860225067138673,3.007545776367188,0.4448999267951557
23972,-0.20207977294921875,9.245972900390626,2.339335327148438,0.35850335773703107
24038,-0.5959107971191406,9.320068817138672,2.2061123657226562,0.17285219611167768
24104,-0.10687774658203125,8.8472021484375,2.5499473571777345,0.15573166909594804
24172,0.7689509582519531,9.28354476928711,2.634671173095703,0.2576106285344484
24238,-0.10627899169921876,9.588760070800781,2.4363336181640625,0.1898559852808433
24305,0.6243516540527344,9.151968383789063,2.214045867919922,0.17898495883426022
24372,0.5402265930175781,9.394015045166016,1.4792239379882812,0.20449389486524916
24438,-0.6001020812988281,9.508826293945313,1.3742921447753906,0.306318726125739
24505,-0.718505859375,9.816436614990234,1.2796888732910157,0.1369529037686067
24573,0.35476226806640626,9.938881988525392,1.0365943908691406,0.2547153217832498
24638,-0.1974394226074219,9.921518096923828,1.116228790283203,0.07823631293294457
24705,0.13262420654296875,10.166558532714845,1.2832814025878907,0.09925772611938181
24772,-0.23575973510742188,10.100845184326172,1.1217672729492187,0.030242331802859106
24838,0.8530760192871094,9.802515563964844,0.975820770263672,0.21830389531942254
24905,0.17633331298828125,9.31273406982422,0.8193960571289063,0.19133287500641746
24973,1.0575508117675783,9.803862762451173,0.6225553894042969,0.21856105179687207
25038,0.9318122863769531,9.302255859375,0.7825726318359375,0.10762853494584537
25105,0.73527099609375,10.097102966308594,0.8792715454101563,0.18116882909283744
25172,0.42526565551757817,9.162596282958985,1.0892848205566408,0.21851771342094778
25238,2.0181033325195314,9.323661346435548,0.8346643066406251,0.3343356176839651
25305,0.5243595886230469,9.746681671142579,0.7364685058593751,0.26905252737500246
25372,-0.032183074951171876,9.742191009521484,0.4655319213867188,0.21617592738903896
25438,0.7855664062500001,9.174421691894532,0.5658233642578125,0.20559383983096863
25504,1.167422332763672,9.816137237548828,0.5780978393554688,0.18436192990993366
25572,0.5252577209472656,9.579778747558594,0.21465362548828126,0.1579314225312684
25638,0.14115646362304687,10.001302185058595,0.4243675231933594,0.16411390261947223
25705,0.0425115966796875,10.209219818115235,-0.24623794555664064,0.1863381147038047
25772,0.7650590515136719,9.80086898803711,0.08532257080078126,0.19087148994403733
25838,1.217867431640625,8.857830047607422,-0.44726989746093754,0.32365047451514617
25904,0.5379812622070312,10.284812622070312,0.14998809814453126,0.3419788019781222
25972,0.137713623046875,9.791588287353516,0.26225463867187504,0.15332096245094892
26038,0.8641529846191407,10.039023742675782,-0.036374359130859374,0.1291320134556902
26105,-0.10433303833007813,10.187514953613281,0.2219883728027344,0.184778028275537
26172,0.10612930297851562,9.350156250000001,0.15672409057617187,0.19726240595021846
26238,0.09026229858398438,9.419761505126953,0.17528549194335938,0.03208724424832062
26305,0.3800596618652344,9.339678039550781,0.21225860595703125,0.07797964901456066
26372,-1.495689697265625,10.4758154296875,-0.28336074829101565,0.5081189954459858
26438,-0.010777587890625,10.788365478515626,0.7650590515136719,0.356028575464109
26505,1.2338841247558594,10.70858139038086,0.4508624267578125,0.3687625473251019
26572,0.7869136047363282,10.551557922363282,0.5442681884765626,0.04415981124037286
26638,0.3706292724609375,10.509495391845704,0.31225067138671875,0.12293926550943368
26705,-0.9466314697265625,9.095236358642579,0.32751892089843754,0.5056399184542344
26772,-2.066602478027344,9.495054931640626,0.023201751708984378,0.37752489800806466
26838,0.44337799072265627,7.982151031494141,-0.3906875610351563,0.665360496020284
26905,-0.30491592407226564,9.820627899169923,0.22498214721679688,0.3895464348620953
26973,0.5493576049804688,9.87511459350586,-0.4843927001953125,0.2694712611508915
27038,-0.25806335449218754,9.759255523681642,-0.6505471801757813,0.17076322743045624
27105,-0.20986358642578126,9.706415405273438,0.9202862548828126,0.3743191133668168
27173,0.3001258850097656,9.190737762451173,0.5463638305664062,0.14222929153751646
27238,-1.0244696044921875,10.255623321533204,0.4201762390136719,0.3426379388197987
27305,-1.4997312927246094,9.26962371826172,-0.8530760192871094,0.26977317703896
27372,0.17797988891601563,9.870923309326173,1.1988569641113282,0.4586870272277108
27438,-0.99393310546875,10.94089828491211,0.23516098022460938,0.3970515757463187
27505,-0.34637969970703125,10.785671081542969,0.5571414184570312,0.12141126535372011
27573,-0.9620494079589844,9.98528549194336,-0.6643185424804687,0.37433150032851187
27638,0.32811767578125,9.706116027832032,0.47720764160156254,0.37840594748692996
27705,0.0017962646484375,9.926457824707033,-0.03263214111328125,0.07938762779764752
27773,-1.260828094482422,8.760382690429688,-1.6483721923828125,0.6007501820202092
27839,-0.4572990417480469,8.895701293945313,-0.14145584106445314,0.29938227892054287
27905,-1.4353651428222658,9.87032455444336,0.0652642822265625,0.33915780640598764
27972,0.5626799011230469,9.549841003417969,0.0940045166015625,0.4480252019590915
28039,-1.6449293518066408,10.214309234619142,0.17139358520507814,0.4696949762007989
28105,-0.4537065124511719,9.015901336669922,0.30805938720703124,0.48396684001887463
28173,0.23680755615234375,10.61801971435547,0.29907806396484377,0.38806922933526866
28239,-0.9348060607910157,8.288563842773438,-0.19055374145507814,0.5730155727929126
28305,0.4559518432617188,10.264305267333985,0.8574169921875,0.5228929655849265
28373,-1.3205538940429689,11.553873596191407,1.307530975341797,0.584779245663856
28439,-0.2149530029296875,8.064629516601563,0.6206094360351563,0.8004557580404842
28506,-2.1079165649414064,9.445807342529298,0.6741979980468751,0.4545109441726775
28573,0.5165757751464845,10.117610321044923,0.39113662719726566,0.5915157398379409
28639,0.7146139526367188,10.205327911376953,1.1705657958984375,0.2669772350305498
28705,-0.8514294433593751,9.875413970947266,1.4295272827148438,0.3671852241361177
28773,-0.029488677978515627,9.849218444824219,0.8077203369140625,0.17660875498450807
28839,0.42032592773437505,10.30142807006836,0.41074584960937505,0.22140699086705312
28906,-0.41763153076171877,11.444451141357423,1.6807049560546876,0.4571702957689129
28973,1.9471508789062502,11.428883514404298,1.9989431762695313,0.5729090666093699
29039,-0.44996429443359376,9.788145446777344,0.79275146484375,0.6608773771203743
29106,0.809366912841797,8.993148651123047,0.7283853149414062,0.3666549935757863
29173,-0.15627502441406252,8.475824432373047,0.02065704345703125,0.3422067276436344
29239,-1.167572021484375,10.090816040039064,1.0186317443847657,0.5049831830477939
29306,1.5395484924316407,10.009085998535157,1.8628761291503908,0.6593076511623943
29373,-0.5830375671386719,10.675200805664064,1.785337371826172,0.42468402313982295
29439,0.6667135620117188,9.850415954589844,1.6182847595214844,0.27179916767069434
29506,-0.7283853149414062,7.43698471069336,0.029189300537109376,0.8152329754545156
29573,0.1778302001953125,8.776100006103515,1.2051438903808593,0.3013358573384897
29639,1.79865966796875,10.82743423461914,1.0629396057128906,0.711538353623949
29706,-0.9630972290039063,11.682755584716798,1.7905764770507813,0.9113094884940182
29773,-1.375789031982422,10.640473022460938,1.6768130493164064,0.18615700202069313
29839,0.3201841735839844,9.24761947631836,1.0961705017089844,0.5818425570977418
29906,0.11585906982421876,9.084159393310546,0.7390132141113281,0.19311435080924463
29973,0.2734812927246094,9.657018127441408,1.229842529296875,0.1512670756700287
30039,-1.8095869445800783,10.68508026123047,2.5894651794433594,0.6856948932066674
30106,0.3944297790527344,9.805808715820312,0.9404942321777344,0.5525915384301908
30173,-0.11705657958984375,9.748328247070313,0.9877958679199219,0.10474240306216986
30239,-0.0401165771484375,10.08827133178711,0.8378077697753906,0.12160907660014177
30306,-0.6342311096191406,9.835596771240235,1.1825408935546875,0.1560474857962578
30373,0.183218994140625,9.820777587890625,1.2716056823730468,0.17597747199839164
30439,0.1682501220703125,9.75251953125,1.4931449890136719,0.07870820705542969
30506,-1.1665242004394532,9.193132781982422,0.9262738037109376,0.3764489657423789
30573,-1.0000703430175781,10.81156723022461,1.14242431640625,0.37113800379995887
30639,0.010777587890625,9.522747344970703,1.0162367248535156,0.33557322705634846
30706,-0.2137554931640625,10.609637145996095,1.3358221435546875,0.22647541894746803
30773,-0.8181985473632812,9.532776489257813,1.1383827209472657,0.26450493757611426
30839,-0.10403366088867189,7.024143218994141,0.19534378051757814,0.7369231371749907
30906,0.17199234008789063,9.490564270019531,0.9035211181640626,0.4728456405254239
30974,-0.959205322265625,9.718689880371095,1.3121713256835938,0.3340017209704736
31039,0.19624191284179687,10.61278060913086,1.4409036254882812,0.35395977567529974
31106,0.7870632934570313,9.848020935058594,1.5753240966796875,0.2441678007349148
31174,0.6200106811523438,9.21079605102539,1.1427236938476564,0.21337910351927658
31239,-0.4345463562011719,9.99531463623047,1.2846286010742187,0.3008067328826026
31306,0.6539900207519531,9.76973373413086,1.204545135498047,0.20840080532237296
31373,-0.05313949584960938,9.70267318725586,0.9791139221191407,0.1406724536670137
31440,-0.24563919067382814,10.093360748291015,1.0120454406738282,0.12547699373330048
31506,-0.03577560424804688,9.336833953857422,0.7381150817871094,0.18638327613976394
31573,0.12094848632812501,10.312804412841798,1.4090199279785156,0.25580809009092736
31639,-0.1484912109375,9.81134719848633,1.2754975891113283,0.09338021100840145
31706,1.0147398376464845,9.47080535888672,1.3451028442382813,0.29634184816681075
31774,1.2412188720703126,9.62992446899414,1.65495849609375,0.1897328157443694
31840,0.944835205078125,10.038724365234376,0.9791139221191407,0.15716376462464612
31906,1.520538024902344,8.871002655029297,1.0162367248535156,0.3155333563463024
31974,0.4369413757324219,9.618697814941406,1.4840139770507814,0.2862569338916547
32039,0.49292495727539065,10.568173370361329,1.8276992797851563,0.29299372174671573
32107,1.28373046875,9.491312713623048,1.3263917541503907,0.29187774924605353
32173,1.384021911621094,9.690099334716797,1.1576925659179689,0.09771142565049415
32240,1.350641326904297,9.945617980957032,0.9934840393066406,0.07845129670850853
32307,1.1060499572753906,10.184820556640625,1.9761904907226564,0.20052526427264095
32374,1.210682373046875,9.71419921875,1.633553009033203,0.10815102307473463
32440,1.3491444396972656,9.334289245605468,1.4784754943847658,0.13452755118826082
32507,1.6046630859375002,9.859546966552735,1.6212785339355469,0.12705143536532532
32574,1.538800048828125,9.021888885498047,1.6212785339355469,0.1895899637642614
32640,1.5741265869140626,10.178383941650392,1.6000227355957033,0.2442397272082788
32707,0.9654922485351562,8.731343078613282,1.3224998474121095,0.3470802971879957
32774,1.9124230957031252,10.16730697631836,1.5859519958496096,0.3489268343177561
32840,1.7333953857421875,9.203012237548828,1.4802717590332033,0.17080094731203657
32907,1.53041748046875,9.72572525024414,1.519490203857422,0.1013353123908836
32974,1.1774514770507813,8.889713745117188,1.5464341735839844,0.21249565151289018
33040,1.5977774047851563,8.896300048828126,1.863175506591797,0.05213359088357699
33107,1.0753637695312501,9.627679138183595,1.7702188110351564,0.19671096632852136
33174,0.8957373046875,9.623338165283204,1.676513671875,0.0731477957001931
33240,1.3247451782226562,10.206525421142578,2.0875588989257814,0.2079838009195644
33307,1.0318043518066407,10.064321136474609,2.0347187805175784,0.05174293440810242
33374,0.8155041503906251,9.619745635986328,2.3174807739257814,0.11758371886021303
33440,1.0725196838378908,9.25001449584961,2.2400917053222655,0.12246607659245273
33507,1.5383509826660158,9.464817810058594,2.3903791809082033,0.1253783788428232
33574,0.97716796875,9.027427368164062,2.544558563232422,0.15991627937422226
33639,1.313668212890625,9.143885192871094,2.9695248413085937,0.13130251395802675
33707,0.7563771057128906,9.37171142578125,2.8599526977539065,0.13795955454214381
33774,0.7545808410644531,8.932075653076172,2.9370423889160158,0.10254871354530902
33840,0.7738906860351563,9.408684539794923,3.0190718078613283,0.11559997925713378
33907,1.084794158935547,10.221045227050782,3.3512310791015625,0.2717395833673968
33975,0.8243357849121095,9.655521240234375,3.26441162109375,0.0916653081775988
34039,1.9282901000976564,9.736951904296875,3.0506561279296878,0.27246043061299435
34107,0.8086184692382813,8.56219482421875,2.4269032287597656,0.40054853693401565
34174,0.4866380310058594,10.225535888671876,2.066602478027344,0.4090069087344376
34240,0.4644841003417969,8.581953735351563,1.907633056640625,0.3323546190052796
34307,0.6572831726074219,9.295669555664062,2.21539306640625,0.12315705187736904
34374,0.21869522094726562,9.97959732055664,2.8196864318847656,0.27446639681894447
34440,0.2571652221679688,9.718091125488282,2.5770410156250003,0.029374913244370807
34507,0.47451324462890626,9.30554901123047,2.6553282165527343,0.119533270349281
34574,0.38080810546875005,9.222920837402345,2.3153851318359377,0.09475215206332567
34640,0.086220703125,10.68942123413086,1.700164489746094,0.3961632129743813
34707,0.10822494506835938,9.411828002929688,1.2397219848632812,0.2844166962800131
34775,0.18456619262695315,9.992620239257812,0.9446855163574219,0.14341313616638082
34840,0.14804214477539063,8.982221374511719,0.767603759765625,0.2419957749608453
34907,0.4152365112304688,9.987530822753907,0.8135581970214845,0.20435117399558805
34974,0.06316864013671876,9.720186767578125,0.9816586303710938,0.08438795021784723
35040,0.5607339477539063,10.057285766601563,0.9336085510253906,0.13297124881557232
35107,0.13666580200195313,9.232051849365234,0.7747888183593751,0.15060782363631264
35175,0.22977218627929688,10.377020874023438,1.0590476989746094,0.20051717023400864
35240,-0.041613464355468754,10.17928207397461,0.5242098999023438,0.13609589185847742
35307,0.18591339111328126,10.770702209472656,0.7761360168457032,0.1563984660271004
35374,0.23441253662109376,9.203910369873048,0.8678952026367188,0.35690455749002065
35440,0.9644444274902344,11.028166809082032,1.1972103881835938,0.42241902883595006
35507,0.5938151550292969,9.709708557128907,1.3741424560546875,0.25115576912186394
35574,0.4596940612792969,9.695039062500001,3.4229319763183597,0.5345347395426825
35640,0.27228378295898437,8.508606262207032,2.295326843261719,0.35123068680399017
35707,0.31868728637695315,10.318791961669922,2.6496400451660156,0.37793977469468265
35774,-0.10612930297851562,9.236841888427735,2.5274940490722657,0.20744807071544968
35840,0.5119354248046876,10.610086212158203,2.276016998291016,0.33213656411972414
35907,0.6008505249023438,9.364376678466797,2.3438259887695314,0.24128886087781723
35975,0.27452911376953126,9.995164947509766,2.056872711181641,0.13704936442037163
36040,0.09520202636718751,9.25959457397461,1.9799327087402345,0.17437226245655696
36107,0.104183349609375,9.716594238281251,1.8604811096191407,0.08508528112090935
36174,0.05703140258789063,9.756710815429688,1.6097525024414063,0.07935586605000636
36240,0.18531463623046876,8.830586700439454,1.469194793701172,0.23233780196238604
36307,0.33410522460937503,10.268646240234375,1.7030085754394533,0.30994021385563564
36375,0.00239501953125,9.746531982421876,1.534010009765625,0.09545454148086763
36440,0.21869522094726562,10.321785736083985,1.292113037109375,0.15131120894705666
36507,-0.012424163818359375,9.567803649902345,0.7447013854980469,0.22447128102655853
36574,0.20642074584960937,10.455158386230469,0.35206787109375004,0.23218758590460814
36640,-0.1023870849609375,9.236841888427735,0.2951861572265625,0.27163273230233803
36707,0.07574249267578126,10.495574340820314,0.6514453125,0.2570203612488003
36775,0.0413140869140625,9.142837371826172,0.7746391296386719,0.28532884760183025
36840,0.29413833618164065,10.576106872558594,0.9768685913085938,0.3036406220985865
36906,0.08487350463867188,9.093739471435548,0.6873706054687501,0.30556190316147297
36975,0.21106109619140626,10.436896362304688,0.6822811889648438,0.2626091004581187
37041,0.1387614440917969,9.629475402832032,0.6277944946289062,0.13821769901510192
37107,0.1375639343261719,9.977501678466798,0.7048841857910156,0.05504262471639999
37175,0.09505233764648438,9.973909149169922,0.7107220458984376,0.04459815991843293
37241,0.11511062622070313,9.526788940429688,0.6936575317382813,0.11464581613464771
37307,0.20911514282226565,9.510921936035157,0.6728507995605469,0.03668888178043604
37375,0.039517822265625,8.79780487060547,0.5671705627441407,0.1921888493422813
37441,0.29174331665039066,10.447673950195313,0.7658074951171875,0.3722578767365762
37507,0.06870712280273437,8.93626693725586,0.7083270263671876,0.2879837688735643
37575,0.19639160156250002,10.590177612304688,0.8187973022460938,0.34314367066965523
37641,0.10388397216796875,8.741970977783204,0.7099736022949219,0.3776732144601442
37708,0.024099884033203126,9.677824859619141,0.8062234497070313,0.14328520682432005
37775,0.15822097778320313,9.606123962402345,0.8517288208007813,0.03597488867668244
37841,0.037571868896484374,9.075327758789063,0.7054829406738281,0.13453813030688297
37908,0.22094055175781252,10.40441390991211,0.9241781616210938,0.3063711144900465
37975,-0.000149688720703125,9.509425048828126,0.7309300231933594,0.159713481319364
38040,0.21480331420898438,10.659633178710939,0.9355545043945312,0.2573911255444235
38108,0.08472381591796875,9.167236633300782,0.6831793212890626,0.3156901277666991
38174,0.27497817993164064,10.547965393066407,0.8422984313964844,0.2721515435978278
38241,0.05194198608398438,9.31512908935547,0.6978488159179688,0.2472841282407567
38308,0.10987152099609375,10.39483383178711,0.8024812316894532,0.21223087125522955
38375,0.06990463256835938,9.415121154785156,0.5053491210937501,0.2065527820314476
38441,0.00449066162109375,9.187444610595703,0.5210664367675781,0.10842678454754151
38507,0.08637039184570312,9.976603546142579,0.41448806762695317,0.17425821060573046
38575,0.007634124755859375,10.185419311523438,0.4602928161621094,0.09638303624005015
38641,0.10343490600585938,10.263706512451172,0.43080413818359375,0.04810953546113561
38708,0.023351440429687502,9.44595703125,0.03442840576171875,0.21874446913263337
38775,0.025297393798828127,10.303224334716797,-0.06182144165039063,0.0952970133521851
38841,-0.030985565185546876,9.608968048095704,0.011975097656250001,0.07065520367757093
38908,-0.09550140380859376,10.092911682128907,0.04086502075195313,0.10603078721516668
38975,-0.00987945556640625,9.798773345947266,0.05254074096679688,0.0506068832196077
39041,0.018411712646484377,9.897268524169922,0.18411712646484377,0.03814068467469225
39108,0.012873229980468751,9.945617980957032,0.22662872314453125,0.024548966477415408
39176,-0.05673202514648438,9.956844635009766,-0.3941304016113281,0.1515051746492225
39241,-0.11990066528320313,10.307265930175781,-0.7782316589355469,0.16194223250256806
39308,-0.2604583740234375,9.991722106933594,-0.9568103027343751,0.10442426979199569
39375,-0.27916946411132815,9.895322570800781,-0.7708969116210938,0.049053025553648634
39441,-0.04101470947265625,9.486822052001953,-1.2403207397460938,0.1668220369542533
39508,-0.02724334716796875,9.678423614501954,-0.858614501953125,0.07276920825870241
39576,-0.11600875854492188,10.508896636962891,0.057779846191406255,0.3228144416774289
39641,0.5273533630371094,10.181527404785157,0.7150630187988282,0.26384207094345946
39708,0.03682342529296875,8.948990478515626,0.5252577209472656,0.3282006723609346
39775,0.15956817626953126,9.447603607177735,0.7701484680175782,0.0788491954109496
39841,0.27842102050781253,9.824819183349609,1.1554472351074219,0.15744646157516243
39908,0.3119512939453125,10.192304992675782,1.3320799255371094,0.13956793025243588
39975,-0.5471122741699219,9.721983032226563,1.4157559204101564,0.23163032120200436
40041,-0.3848497009277344,9.281000061035156,0.02125579833984375,0.36397313806508724
40107,0.31629226684570316,10.458301849365235,-0.3088078308105469,0.35482379686921045
40175,0.16630416870117187,10.7536376953125,0.36823425292968753,0.1887791577652489
40241,0.683778076171875,10.147098999023438,0.054636383056640626,0.18143099420516498
40308,0.6123765563964844,9.279503173828125,-1.2792398071289064,0.4241308041857562
40375,-0.26599685668945316,10.520272979736328,-1.1867321777343751,0.4078007568477746
40441,0.12049942016601563,10.520123291015626,-0.7556286621093751,0.13286223974703484
40508,0.27767257690429686,9.935588836669922,-1.5898439025878908,0.2685012242198435
40576,0.6385720825195312,9.880054321289062,-2.302960968017578,0.2617501046157309
40641,0.5951623535156251,10.65589096069336,-1.9478993225097658,0.1854489643942849
40708,0.5941145324707031,9.712852020263673,-1.9329304504394533,0.19054625269645695
40775,0.7385641479492188,9.231453094482422,-2.582729187011719,0.23461146042330985
40841,-0.04805007934570313,10.116712188720703,-2.079625396728516,0.4053681047932339
40908,-0.3034190368652344,9.914183349609376,-1.8609301757812502,0.03487239366800977
40975,0.38275405883789065,8.987610168457032,-2.5239015197753907,0.3320697367960311
41041,1.6741186523437501,9.6519287109375,-2.9895831298828126,0.4114766996267456
41108,1.5631993103027344,9.11828842163086,-2.6137147521972657,0.13517864160775891
41175,0.47496231079101564,10.216105499267579,-2.5846751403808597,0.3043532262217305
41241,1.1451187133789062,11.353440399169923,-1.1235635375976563,0.4673928293087977
41308,0.9653425598144532,9.68351303100586,-1.0853929138183593,0.3446334544094273
41376,-0.8904981994628907,9.708660736083985,-1.0151889038085937,0.4815778133077651
41441,1.6682807922363283,10.094558258056642,-1.644031219482422,0.5471573342104372
41507,-0.7104226684570313,7.068750457763672,-1.1861334228515625,0.8746409300920464
41576,4.415517883300781,8.624315643310547,-2.039658508300781,1.1990135702756093
41641,3.0419741821289064,12.699441375732423,0.15777191162109375,1.1163502179096971
41708,2.5737478637695315,10.41399398803711,-0.3153941345214844,0.28071766461936215
41776,1.117276611328125,9.188342742919922,-1.2030482482910156,0.5845089245342424
41841,2.2641915893554687,9.401948547363281,0.11241622924804688,0.3341576351435888
41908,1.5988252258300781,11.155102844238282,0.861009521484375,0.513129061937721
41975,3.1677127075195313,10.357561340332031,-0.29294082641601565,0.4361776291368161
42041,3.071612548828125,9.065747680664064,-1.1186238098144532,0.43942792706077455
42108,0.12633728027343752,9.015901336669922,-0.39667510986328125,0.7354721552863193
42175,1.4756314086914064,9.969867553710937,-0.15717315673828125,0.27984445556135973
42241,1.6148419189453125,11.365415496826172,-1.9047889709472656,0.5825696642847635
42308,0.47256729125976565,10.905272369384766,-0.9720785522460939,0.29712169962140406
42375,0.5959107971191406,10.377769317626953,0.5165757751464845,0.4281318102116531
42441,1.021326141357422,9.363029479980469,-0.06062393188476563,0.5586928183359651
42508,2.634671173095703,7.957901458740235,-1.2641212463378906,0.5446415499030343
42575,1.4376104736328126,9.046138458251953,-2.4701632690429687,0.4909793469474526
42641,0.1387614440917969,10.12464569091797,-1.054856414794922,0.5625586901558234
42708,-1.565294952392578,9.52499267578125,-0.6164181518554688,0.5566168585579272
42775,0.9560618591308594,9.712402954101563,-0.6048921203613281,0.36837322073199913
42841,-0.7502398681640625,8.82609603881836,-0.5836363220214844,0.2939217885904716
42908,1.0208770751953125,9.691745910644531,-1.2796888732910157,0.48348094869362185
42975,1.5777191162109376,10.024653625488282,-0.24339385986328127,0.2875336664618444
43041,2.1031265258789062,11.094029846191408,-1.2745994567871095,0.410589847710406
43108,-0.7265890502929688,11.91417434692383,-0.6327342224121094,0.7265914245142627
43176,0.6810836791992188,11.729009399414062,-1.0114466857910156,0.19982729137643362
43241,-1.701511688232422,10.355016632080078,-0.6396199035644532,0.6489960932141539
43308,0.14564712524414064,8.324788513183595,-0.43798919677734377,0.6786341352683615
43376,-0.03278182983398438,8.80498992919922,-0.8888516235351563,0.10587527704857903
43441,-2.4818389892578128,10.510842590332032,-0.425115966796875,0.7404139508341996
43508,-0.950673065185547,9.086105346679688,-0.7737409973144531,0.3479941663488176
43575,0.4068539428710938,9.938582611083985,-0.8277786254882813,0.42588018634907526
43641,1.0350975036621095,9.496851196289063,-0.9446855163574219,0.2690604821296212
43708,0.22109024047851564,11.236234130859376,-0.5348377990722657,0.33145877929012774
43775,-0.5713618469238282,10.047256622314453,-0.659827880859375,0.2517214162893481
43841,-2.1716839599609377,11.188034362792969,-1.314716033935547,0.553051470269414
43908,1.4073733520507814,10.412946166992189,-0.03457809448242188,0.8383315294781185
43976,-0.520767059326172,9.586065673828125,0.6653663635253907,0.44637113405820783
44041,-0.8225395202636719,8.410709838867188,-0.17573455810546876,0.4147931649951292
44108,0.7441026306152344,8.898246002197267,0.2986289978027344,0.3731482631611044
44175,-1.483864288330078,10.94089828491211,2.804418182373047,0.9514116494635719
44241,0.20088226318359376,9.746981048583985,1.65495849609375,0.3701931343577772
44308,0.833466796875,9.832004241943359,0.820294189453125,0.33611481714381036
44376,-0.7240443420410156,9.979747009277345,1.1042536926269533,0.3325003414413064
44442,-0.4279600524902344,10.85662353515625,1.2232562255859376,0.22962166551865215
44508,-0.03547622680664063,10.02644989013672,1.2460089111328125,0.17037926752685212
44575,0.6453080749511719,9.915680236816407,1.082548828125,0.22354463739894348
44642,0.74964111328125,9.89996292114258,1.0054591369628907,0.08644489980208825
44708,-0.45026367187500005,9.586365051269532,1.043031005859375,0.2925497465460637
44776,-0.2130070495605469,9.927355957031251,0.53887939453125,0.14153724894466085
44842,-0.1191522216796875,8.993597717285157,-0.41568557739257816,0.35880010440804155
44908,0.29683273315429687,12.293485565185547,0.24593856811523437,0.8007426315599697
44976,0.6339317321777344,9.83110610961914,-0.7485932922363282,0.496755838718257
45042,-0.06631210327148437,7.516918487548828,-1.6892372131347657,0.7570735763433417
45109,-0.5783972167968751,9.573940887451172,-0.5680686950683594,0.43307770627538184
45174,-1.6013699340820313,11.30643814086914,1.041534118652344,0.7507484821460505
45242,-0.3074606323242188,12.033476257324219,-0.056133270263671875,0.4301864442051986
45308,-0.037122802734375,9.824669494628907,-0.9666897583007813,0.710570360070459
45375,0.6295907592773438,10.439740447998048,-1.2702584838867188,0.16274449086805765
45442,0.6399192810058594,8.716074829101563,-0.8015830993652344,0.4419413994746802
45509,-1.3245954895019532,9.972711639404297,-0.037571868896484374,0.5691142990761034
45575,-0.4981640625,9.738748168945312,-0.5882766723632813,0.11942779096224762
45642,-0.5466632080078125,10.227332153320313,-0.692010955810547,0.12955832680153048
45708,-0.2951861572265625,10.682535552978516,-0.23920257568359377,0.18786833929256663
45776,0.45340713500976565,10.35651351928711,-1.141077117919922,0.2889576934539695
45841,0.2662962341308594,10.286758575439453,-0.9036708068847656,0.030566899338109337
45909,-0.25162673950195313,10.187215576171875,-0.27422973632812503,0.20744533255768421
45976,-0.4122427368164063,10.089768218994141,-0.7749385070800782,0.138746575060356
46042,-0.39278320312500004,9.613608398437501,-1.0876382446289063,0.16181143550298116
46109,0.14190490722656252,9.820777587890625,-0.9068142700195313,0.146310233844616
46176,0.19190093994140625,10.123597869873047,-0.9412426757812501,0.09351236104264347
46242,-0.38709503173828125,9.753417663574218,-0.9511221313476563,0.15220274630374458
46309,-0.9045689392089844,9.080117797851562,-1.530267791748047,0.28758859266980324
46377,-1.447639617919922,9.793085174560547,-0.6593788146972657,0.2850768278541313
46442,0.11541000366210938,9.939929809570312,-0.4891827392578125,0.364312245855119
46509,0.032332763671875,10.156379699707031,-0.8149053955078125,0.1139900012063186
46576,-0.24504043579101564,9.723479919433593,-0.79754150390625,0.19166114237243853
46642,-1.2006532287597658,9.34776123046875,-0.7324269104003907,0.2130108770113495
46709,-1.8341358947753907,8.870254211425781,-1.0157876586914063,0.25707289822442897
46775,0.379610595703125,9.545949096679688,-1.9197578430175781,0.5730956577845872
46842,-0.5336402893066406,8.8759423828125,-0.36628829956054687,0.36921536184790493
46909,1.1198213195800781,10.639275512695313,0.6854246520996095,0.799255449858581
46975,1.1752061462402343,10.52655990600586,-1.5753240966796875,0.4866222119743093
47042,-0.08083190917968751,10.078990631103515,-1.4639556884765625,0.3506021675710494
47109,0.47900390625,8.678952026367188,-1.0635383605957032,0.38575195174341265
47176,-0.4712200927734375,9.462422790527345,-0.5918692016601563,0.2810950564233531
47242,-1.1090437316894532,9.5465478515625,-1.5197895812988282,0.2958993911504133
47309,-1.3620176696777344,11.158545684814454,0.5023553466796875,0.6274447376951845
47376,-0.2908451843261719,13.129646759033204,-0.14923965454101562,0.6442274363657138
47442,-0.5629792785644532,12.626393280029298,-0.41433837890625,0.08230627638043422
47509,-2.500250701904297,11.221265258789064,-2.676284637451172,0.835641462317189
47576,1.069525909423828,10.170899505615235,-1.2651690673828127,0.8709804162483893
47642,0.69216064453125,9.151519317626954,-0.4544549560546875,0.43745666155593943
47708,-2.466720428466797,8.784332885742188,-1.041683807373047,0.7898037795504367
47776,0.6328839111328125,9.660311279296875,-1.0780581665039064,0.6099288697876746
47841,0.5165757751464845,10.561587066650391,-0.5950126647949219,0.17582329288120546
47909,-0.12229568481445313,9.924661560058594,-0.6698570251464844,0.14389154636405227
47976,-0.9542655944824219,9.666448516845703,-1.229842529296875,0.28158468824976995
48042,-0.07813751220703126,9.534722442626954,-1.200952606201172,0.16743741901972203
48109,1.6678317260742188,7.739355926513673,-1.0072554016113282,0.6635291230064352
48176,0.9761201477050782,8.082891540527344,0.8927435302734376,0.3640198626592029
48241,-1.196312255859375,7.617958374023438,-1.1792477416992189,0.42878886388215887
48309,0.35161880493164066,7.435487823486328,-1.1584410095214845,0.307184407306647
48376,0.4608915710449219,9.290879516601564,-0.15223342895507813,0.5160751514137228
48442,-1.7009129333496094,7.520061950683594,-1.9317329406738282,0.7233008485929168
48509,-0.35940261840820314,7.542664947509766,-1.5103591918945314,0.2207356832008721
48577,0.03263214111328125,8.796307983398439,-0.6505471801757813,0.39508743820346015
48642,-1.1427236938476564,9.340725860595704,-0.4477189636230469,0.29435728978245124
48709,0.887354736328125,8.774752807617189,-1.526675262451172,0.4601642964536731
48776,-0.7179071044921875,8.887767791748047,-1.4965878295898438,0.31940520708012304
48842,-1.3036390686035157,7.734565887451172,-1.1551478576660157,0.3709451481835899
48909,1.9354751586914063,6.674320678710938,-0.7280859375000001,0.8347119814270951
48976,-0.00748443603515625,9.921518096923828,-0.9047186279296875,0.9861351114768483
49042,-1.5640974426269532,12.246932373046876,-0.15417938232421877,0.7923470964715056
49109,-0.8229885864257813,8.53779556274414,-0.09490264892578125,0.7485271487743191
49176,-0.2136058044433594,11.93722640991211,-0.08217910766601563,0.6911293848748273
49242,-0.5471122741699219,13.357323303222657,1.4221925354003906,0.6451902153872652
49309,0.20567230224609376,9.827962646484375,1.6468753051757814,0.7875265995139519
49375,1.435814208984375,8.349786529541015,1.0581495666503906,0.6685317537093552
49442,-2.0875588989257814,9.323511657714844,0.28740234375,0.8278667655478824
49509,-0.1119671630859375,9.443861389160157,0.55564453125,0.3208761122528517
49577,0.9169931030273438,9.817783813476563,1.4353651428222658,0.40691330046553337
49642,0.31943572998046876,9.548194427490236,1.1392808532714844,0.08049033615600651
49709,-0.5071453857421875,9.632169799804688,1.1773017883300783,0.22336648870751394
49777,-0.8131091308593751,9.541308746337892,0.8464897155761719,0.1567665403262396
49842,0.7448510742187501,10.805879058837892,0.5227130126953126,0.48386701420218403
49909,1.507365417480469,11.392958221435547,1.367406463623047,0.4039910479173821
49975,-1.0216255187988281,11.423345031738283,1.5877482604980468,0.5749522688972392
50042,1.554217987060547,10.24484573364258,1.7271084594726562,0.5785236226082452
50109,1.4546749877929688,8.629854125976562,0.018411712646484377,0.6357366183308987
50176,-0.7238946533203126,9.49625244140625,0.4742138671875,0.5287250141501123
50242,-0.7695497131347656,8.616232452392579,0.3561094665527344,0.38797668848144906
50309,1.1000624084472657,9.256600799560548,-0.38859191894531253,0.3636208731844896
50376,0.164058837890625,9.435329132080078,-0.652642822265625,0.26305899711311737
50442,-0.8554710388183594,10.307265930175781,0.00987945556640625,0.3281476755897913
50509,0.4041595458984375,10.300380249023439,0.4149371337890625,0.291401336736881
50576,-0.3362008666992188,8.523275756835938,-0.5309458923339844,0.47194681270747296
50642,0.4680766296386719,9.307195587158203,0.9514215087890625,0.3295021170344308
50709,-1.2433145141601563,9.948611755371095,0.9678872680664063,0.4560396933765875
50776,1.1219169616699218,9.37695053100586,0.8068222045898438,0.4988109502366236
50842,1.379381561279297,10.88192092895508,-1.3382171630859376,0.6720076745655971
50909,-1.005908203125,11.056457977294922,0.47870452880859377,0.6489839873659621
50976,-2.289339294433594,11.903097381591797,2.066752166748047,0.7050621766763923
51042,1.0246192932128906,8.799152069091797,0.5550457763671875,1.2615776485653436
51109,1.5152989196777344,8.161478118896484,0.013921051025390626,0.38170393194441116
51177,0.24099884033203126,11.030112762451173,0.11825408935546876,0.6903456552200052
51242,-2.487078094482422,13.174703063964845,0.9910890197753907,1.0471973155260352
51309,-1.5305671691894531,7.4485107421875005,1.510059814453125,1.272723991854774
51376,2.4477099609375,8.516240386962892,-1.0636880493164063,1.171942618466862
51442,1.0205776977539063,10.225835266113283,0.8149053955078125,0.5350992613313805
51509,-1.8398240661621095,12.757969665527344,-0.1047821044921875,0.7824625434066471
51577,1.0074050903320313,10.933413848876954,5.409600677490235,1.4466601917382282
51642,2.272723846435547,17.619410247802737,4.3912683105468755,1.763823390635635
51709,-1.7474661254882813,11.630065155029298,2.139650573730469,1.496605456528
51776,1.6938775634765626,10.978470153808594,6.6930317687988286,1.2636133653546457
51842,0.8180488586425781,11.815679168701173,6.157894592285157,0.1685969205207247
51908,1.4910493469238282,12.364138641357423,4.664749603271485,0.38500436406677413
51977,-1.6729211425781252,7.886050872802735,2.4135809326171875,1.4790764853648153
52042,2.7189459228515624,8.68957992553711,-0.7189549255371094,1.309733109441623
52109,-0.22183868408203125,11.433523864746094,1.3394146728515626,0.8854375982729394
52175,-2.4815396118164066,15.246694335937502,3.4621504211425784,1.44740221054586
52242,2.8984226989746094,3.191363525390625,3.2883618164062502,2.976234040704934
52309,0.9249266052246095,3.2422576904296876,1.691931610107422,0.8148779944469122
52376,-0.5972579956054688,9.09433822631836,-3.237467651367188,1.9159252445145722
52442,-2.2052142333984377,11.484268341064453,0.2245330810546875,1.1844049539085069
52509,2.819985809326172,9.361981658935548,1.5831079101562502,1.2600411449652533
52577,-0.9463320922851562,9.23414749145508,0.03113525390625,0.720332083077533
52642,-1.3103750610351563,8.962312774658203,2.2712269592285157,0.5106091205604031
52709,-1.620230712890625,7.394772491455078,0.26225463867187504,0.6203922401838244
52776,2.822231140136719,10.212962036132813,2.1444406127929687,1.262700283070705
52842,-0.6725514221191407,10.814411315917969,1.6877403259277344,0.6824654273910338
52909,-0.711171112060547,10.953472137451172,2.0901036071777344,0.21838729648089747
52976,-1.120869140625,8.9430029296875,0.18291961669921875,0.6578083182133926
53042,1.4031820678710938,9.488019561767578,0.8433462524414063,0.5227775156532763
53108,-1.1180250549316406,9.710457000732422,0.7801776123046875,0.5039157822626181
53176,0.026195526123046875,11.985725555419922,1.9742445373535158,0.6748626183426664
53242,-1.04183349609375,10.420131225585939,-0.3725752258300781,0.6116107793275193
53309,-0.36718643188476563,9.940378875732423,2.3198757934570313,0.5852231803657334
53376,2.049537963867188,7.593409423828126,1.4203962707519533,0.8983340122895866
53442,-2.151775360107422,10.346484375000001,2.2079086303710938,1.0525534040430187
53509,-1.0696755981445314,10.192454681396486,2.616259460449219,0.17985266745435016
53578,-0.4345463562011719,9.363777923583985,1.3177098083496095,0.38197598336739313
53642,-1.9263441467285156,7.542215881347657,-1.5441888427734376,0.9902471266722007
53709,2.405348052978516,11.151959381103516,-1.028511199951172,1.268550591298726
53776,-0.3192860412597656,12.03108123779297,0.5673202514648438,0.7093413337526223
53842,-1.313668212890625,16.42788803100586,1.875150604248047,1.3236255149809004
53909,-1.7055532836914062,9.54070999145508,3.0292506408691406,1.558641722658976
53976,0.7626640319824219,9.123677215576173,0.41433837890625,0.9087811651163633
54042,-0.8545729064941406,9.020541687011718,1.060843963623047,0.3577443850360336
54109,-0.14115646362304687,11.14447494506836,0.9648934936523438,0.5058920942112376
54176,0.3242257690429688,10.952274627685547,1.4456936645507814,0.19557107880986094
54242,-0.5590873718261719,10.964249725341798,0.6550378417968751,0.2523426977153926
54309,-0.42571472167968755,11.581566009521485,0.7200027465820313,0.16246856005804095
54378,0.7620652770996094,10.524314575195312,0.8970845031738282,0.37148966872013867
54442,0.4508624267578125,10.951675872802735,1.1253598022460938,0.08377176604107034
54509,0.38514907836914064,10.300230560302735,0.4412823486328125,0.21609366287808676
54577,-1.9065852355957031,9.036558380126953,0.6637197875976563,0.6771384474480261
54642,0.9422904968261719,8.877738647460937,0.609532470703125,0.5822265561392266
54709,1.4759307861328126,10.800340576171875,1.9016455078125,0.5596294109824971
54776,-0.3411405944824219,12.141850891113283,0.8976832580566406,0.540468866740657
54842,-0.6938072204589845,10.628946990966798,1.0835966491699218,0.3060620240383485
54909,1.2076885986328125,9.126072235107422,0.702938232421875,0.6293511432569661
54976,0.6435118103027344,9.797126770019531,1.5129039001464843,0.1904954477300343
55042,-2.192640380859375,9.229956207275391,0.8976832580566406,0.7363149061566736
55109,-1.4593153381347657,9.686506805419922,0.8912466430664063,0.08728097134987477
55176,0.7150630187988282,9.798324279785156,1.216520233154297,0.5498923012047607
55242,-0.6093827819824219,10.636431427001954,1.4926959228515626,0.3448459737456444
55309,-1.2386741638183594,10.435100097656251,0.38470001220703126,0.3283918713319987
55375,0.5059478759765625,8.343798980712892,0.338895263671875,0.6499562312589451
55442,0.09565109252929688,8.77340560913086,1.0103988647460938,0.1508525662497792
55509,0.05119354248046875,9.196126556396484,1.5811619567871094,0.2063288670232321
55576,-0.4079017639160156,10.10788055419922,1.6096028137207032,0.28393842705899736
55642,-0.5770500183105469,9.627230072021485,1.3768368530273438,0.10213537028726462
55709,-0.0077838134765625,9.931846618652344,1.1433224487304687,0.1554255593191767
55776,-0.664617919921875,10.105485534667968,1.2329859924316406,0.1456461479248622
55842,-0.020357666015625,9.16529067993164,1.7202227783203126,0.28287159636326414
55909,-0.8560697937011719,10.231822814941406,1.6865428161621094,0.2767232862286191
55976,1.0789562988281252,10.135123901367187,0.7583230590820312,0.49526013432015326
56042,0.9798623657226563,9.888736267089845,-0.15163467407226563,0.30153060021886263
56109,-1.7643809509277344,8.49992431640625,0.19235000610351563,0.7565348696570694
56176,2.7678941345214847,8.823551330566406,1.2913645935058595,1.0062251378971427
56242,1.8486557006835938,8.594677276611328,2.002086639404297,0.2546500021829902
56309,-0.7720944213867188,9.195976867675782,0.7122189331054688,0.7011018492222955
56376,-0.014220428466796876,9.58292221069336,1.3356724548339844,0.15968366217449176
56442,1.28373046875,9.219178619384767,1.0815010070800781,0.3357979091496916
56509,-0.9144483947753906,10.635383605957031,1.713337097167969,0.5963501001468824
56577,-0.24099884033203126,9.63606170654297,0.8214916992187501,0.2539063931856954
56642,0.25641677856445316,8.998687133789064,0.7641609191894532,0.2505316529638966
56709,-0.07155120849609375,9.289682006835937,0.5346881103515625,0.08973498154785538
56777,0.6923103332519531,9.696386260986328,1.603615264892578,0.31292670767854835
56842,-0.33560211181640626,9.845027160644532,1.2487033081054688,0.2866372977323265
56909,0.09071136474609376,9.363478546142579,0.6715036010742188,0.17584466592618928
56976,0.5029541015625,9.956096191406251,1.3936019897460938,0.22549000822548257
57042,0.6860234069824219,10.144703979492188,1.37234619140625,0.11346278503562222
57109,0.27692413330078125,9.824519805908203,1.9639160156250002,0.18647878001757665
57176,0.5412744140625,10.192005615234375,1.0475216674804688,0.21007875570237966
57242,0.4998106384277344,8.692573699951172,1.888472900390625,0.4884319509524742
57309,-0.14220428466796875,10.786569213867189,1.3073812866210939,0.5477787596520408
57376,-0.18336868286132812,8.829987945556642,1.14242431640625,0.3705082402876849
57442,0.1933978271484375,9.442364501953126,1.490600280761719,0.12466407211023099
57509,-0.03906875610351563,11.671229553222657,0.9918374633789063,0.5840887105557909
57577,0.41703277587890625,9.306746520996095,2.3644830322265626,0.5582439414359492
57642,1.2003538513183594,8.309370574951172,1.3232482910156251,0.4611534775233692
57709,-0.10508148193359376,9.08999725341797,2.079625396728516,0.32408626176345856
57776,-0.06077362060546875,10.820548553466798,2.7141558837890627,0.501605408314523
57843,0.8346643066406251,10.734327850341797,2.594554595947266,0.23022463593309747
57909,0.25147705078125,10.4374951171875,2.1969813537597656,0.1424096579778019
57976,0.7176077270507812,9.514215087890625,1.4037808227539064,0.3424537577656554
58043,0.8387059020996094,9.653874664306642,1.5700849914550783,0.2585578731305715
58109,0.0568817138671875,8.897647247314454,1.3269905090332033,0.19475913129592937
58176,-0.13412109375,9.737550659179687,1.1874806213378908,0.22964333110285495
58242,-0.23860382080078127,9.012608184814454,1.6742683410644532,0.17693433902601943
58309,0.7014413452148438,10.250982971191407,2.510878601074219,0.42683612899973833
58376,0.5336402893066406,9.042545928955079,2.3246658325195315,0.23763333742939194
58442,-0.5715115356445313,9.031768341064453,1.8169216918945312,0.266744367983421
58509,-0.23531066894531252,8.315208435058594,1.1840377807617188,0.27256563351987706
58578,-0.1538800048828125,9.925260314941406,1.8507513427734377,0.37449654566241136
58643,0.2567161560058594,9.795180816650392,2.512076110839844,0.2306503899528619
58710,1.0470726013183593,10.053393859863283,3.3512310791015625,0.3516172197860253
58776,0.7146139526367188,8.978179779052734,2.6984385681152343,0.2692945261683033
58843,-0.1047821044921875,10.16206787109375,2.6664051818847656,0.2979899815002632
58909,-0.10089019775390626,9.141041107177735,3.321592712402344,0.26164213837120914
58976,0.022752685546875002,10.857371978759765,3.6115397644042972,0.4883730161338301
59043,-0.2603086853027344,9.699380035400392,3.6706668090820314,0.27788536561161303
59109,-0.25192611694335937,9.964478759765626,3.447181549072266,0.04758167719919096
59176,0.005538482666015625,8.820557556152345,2.9690757751464845,0.3359332478591543
59243,-0.7861651611328125,9.850415954589844,3.497776336669922,0.3089123944482612
59309,-1.5491285705566407,9.06514892578125,3.599265289306641,0.2933722509014709
59377,0.5092410278320313,8.787476348876954,3.177592163085938,0.474417501535483
59443,-1.1005114746093752,10.8494384765625,4.063000946044922,0.6015107054574669
59509,-1.1283535766601562,9.22366928100586,3.9101687622070314,0.29531295495636817
59579,-1.4805711364746095,9.698631591796875,3.81287109375,0.11988122008836814
59642,-0.21270767211914063,8.2628173828125,3.497476959228516,0.40762714652645743
59709,-1.2587324523925782,9.629774780273438,3.200644226074219,0.3036389171517841
59776,-1.3120216369628908,8.671467590332032,3.653452606201172,0.20070433918741618
59843,-1.1521540832519532,9.921518096923828,3.732188873291016,0.2732269000937284
59909,-1.2581336975097657,9.124575347900391,4.029770050048828,0.15809498648087975
59976,-0.16705261230468751,8.875193939208986,4.150419158935547,0.2890138364709641
60043,-0.7152127075195313,9.5657080078125,3.832630004882813,0.1774314982043231
60110,-1.0154882812500001,8.68763397216797,3.3943414306640625,0.24030311361061962
60176,-1.2660671997070314,10.516081695556641,4.288731536865234,0.46216651398988945
60243,-1.0696755981445314,9.15421371459961,3.9549256896972658,0.24179917367909587
60310,-0.7839198303222656,9.192384338378906,3.7808377075195314,0.10662188162708763
60376,-1.5441888427734376,9.21693328857422,4.006268920898438,0.1759967503546371
60442,-0.7532336425781251,9.46317123413086,4.319866790771485,0.1887288194831133
60510,0.2125579833984375,10.154433746337892,3.6444712829589845,0.36779837721417097
60577,0.2471360778808594,8.93866195678711,3.6839891052246094,0.2658880752416319
60643,0.3347039794921875,10.829380187988281,3.6384837341308596,0.41266632299896544
60709,-0.5484594726562501,8.154293060302734,3.051404571533203,0.6232313813998955
60777,0.17438735961914065,9.546697540283203,3.975582733154297,0.31011922582058404
60843,-1.107546844482422,9.416468353271485,3.8983433532714846,0.29038487535924645
60910,0.3715274047851563,8.54587875366211,3.324137420654297,0.44675656616305287
60976,-2.109114074707031,11.64697998046875,3.6877313232421876,0.9389365005976826
61043,-0.24219635009765625,8.527317352294922,2.5465045166015625,0.7300478038558181
61110,1.9666104125976565,10.680439910888673,2.4457640075683593,0.7472254223914387
61177,0.38619689941406254,9.812993774414062,2.4137306213378906,0.2675492163851033
61243,-0.2785707092285156,9.18010986328125,2.605182495117188,0.29640738108411213
61310,0.87418212890625,8.73508529663086,1.8712586975097658,0.32997779117505355
61377,0.06541397094726563,9.599387969970703,1.5922389221191406,0.25446788387399205
61443,0.18276992797851563,8.591234436035156,1.8024018859863282,0.20943147026163808
61510,-0.769998779296875,10.575957183837891,3.151246948242188,0.6104860593133589
61576,1.1955638122558594,9.034612426757812,2.2079086303710938,0.5327876244904728
61643,0.4846920776367188,9.515412597656251,2.5068370056152345,0.09451030541229932
61710,0.20312759399414063,9.84158432006836,2.1727317810058593,0.27785240239606457
61776,-0.06077362060546875,9.44880111694336,1.9922071838378907,0.16408939407699222
61843,-1.2696597290039062,10.75079360961914,2.1043240356445314,0.455692257600714
61910,2.3977139282226565,9.033714294433594,2.441872100830078,0.9100180373397523
61977,0.8342152404785157,10.256671142578126,2.585573272705078,0.2902667805609764
62043,0.4796026611328125,9.203461303710938,2.2086570739746096,0.2606752908672073
62109,0.5189707946777344,9.896819458007814,1.9035914611816407,0.15640493115339463
62176,0.22558090209960938,9.222771148681641,1.3412109375,0.229110703760897
62243,0.7683522033691407,9.59489730834961,0.9547146606445313,0.18928374240265872
62309,0.5897735595703125,8.742120666503906,0.4914280700683594,0.24951557207692832
62376,-0.47556106567382816,9.317823486328125,1.0690768432617188,0.3055185764020918
62443,0.0820294189453125,10.495274963378908,1.0641371154785157,0.3269416187887152
62510,-0.1538800048828125,10.291249237060548,1.3672567749023439,0.16196172192831532
62577,0.6581813049316406,10.576555938720704,1.2458592224121094,0.21235850603099182
62643,1.8857785034179688,9.106163635253907,0.144898681640625,0.5753564304303685
62710,1.2002041625976563,9.711654510498047,0.8123606872558594,0.14095887480158617
62777,-0.28695327758789063,9.391919403076173,0.839454345703125,0.39885414645541073
62843,-0.980760498046875,10.438243560791015,1.2766950988769532,0.38438296500241415
62910,-0.3555107116699219,9.799521789550782,1.1942166137695314,0.13247350798327467
62979,0.20806732177734377,9.727970581054688,0.3549119567871094,0.2673956806406827
63043,-0.42945693969726567,8.932075653076172,-0.05703140258789063,0.2863495024989369
63110,-0.5282514953613282,9.47080535888672,-0.38709503173828125,0.15628557631846623
63176,-0.4824467468261719,8.77819564819336,-1.5775694274902345,0.36169471600865993
63243,-1.1392808532714844,8.891510009765625,-2.05253173828125,0.2598582187378696
63310,-1.653760986328125,9.710756378173828,-1.3859678649902345,0.2982119021992281
63376,-2.053280181884766,8.663534088134766,-2.2793101501464843,0.31523870053547776
63442,-0.2935395812988281,9.298513641357422,-0.42391845703125003,0.6190889530305017
63510,-1.2545411682128906,11.805200958251953,0.6556365966796875,0.6985142848960382
63576,-0.4692741394042969,11.195219421386719,-0.36404296875000003,0.22871876628659293
63643,1.9763401794433595,11.271560668945312,-0.2472857666015625,0.6521439472197718
63710,0.11346405029296876,10.666069793701173,0.2285746765136719,0.35611554602302536
63777,0.6312373352050782,9.63890579223633,-0.6662644958496095,0.3563367844992801
63842,-1.3762380981445312,7.9185333251953125,-0.3070115661621094,0.7026795597674365
63910,0.06750961303710938,8.721014556884766,-0.350870361328125,0.2502541878976484
63977,0.7839198303222656,8.361611938476562,-1.4340179443359375,0.36811927648762904
64043,-0.8804690551757813,10.456056518554687,0.909957733154297,0.8071303385008413
64110,-0.24399261474609377,13.002710723876953,1.6363970947265625,0.8318204230047004
64176,-3.2159124755859376,10.848240966796876,0.9217831420898438,0.6908279818391291
64243,-2.918181610107422,7.310797119140625,-0.11840377807617188,1.014945302587283
64309,3.6133360290527348,9.134754180908203,0.9904902648925782,1.6416926903269762
64376,-2.0372634887695313,8.830287322998048,1.8761984252929689,0.8878289427572459
64442,-0.8804690551757813,6.929689636230469,-0.5935157775878906,0.735054836434391
64510,0.22049148559570314,6.396199035644532,-2.0549267578125,0.6174981128918295
64577,0.9578581237792969,7.684569854736329,-0.4358935546875,0.45409195499698524
64643,1.4567706298828125,9.923613739013673,1.594933319091797,0.8707738621248308
64710,2.419867858886719,11.45822250366211,2.6339227294921876,0.7329905117388276
64776,-3.0000613403320315,8.710536346435548,2.1312680053710937,1.397029864641335
64843,-2.069296875,8.687933349609375,0.5460644531250001,0.43631131047217153
64910,0.06511459350585938,8.17944076538086,1.3015434265136718,0.41389141477296665
64977,-3.793411560058594,9.718091125488282,2.1438418579101564,0.8403272594310961
65042,2.7759773254394533,13.365705871582032,2.8859985351562503,2.263260563837
65110,1.9797830200195314,12.083023223876953,1.3546829223632812,0.29047563133539767
65177,0.15283218383789063,8.77774658203125,0.7445516967773438,1.010843328163341
65243,1.3846206665039062,8.82609603881836,-0.26914031982421877,0.4012578451929236
65310,-2.424807586669922,10.581046600341798,1.1564950561523437,1.0265332962751184
65376,0.13172607421875002,9.749825134277344,2.8265721130371095,0.7855014935859693
65443,-1.174607391357422,8.882079620361328,2.2746697998046876,0.4424645302880846
65510,-1.5784675598144533,9.210646362304688,-0.03622467041015625,0.6132765939436183
65576,0.17663269042968752,8.135432281494142,0.214354248046875,0.4783431902934165
65643,-2.1239332580566406,8.25563232421875,0.4920268249511719,0.48132920312757216
65710,3.7497024536132812,8.24650131225586,1.9676582336425783,1.4018694124337319
65777,2.34951416015625,10.820249176025392,1.2768447875976563,0.6454156183750644
65843,2.1809646606445314,9.549691314697267,0.4806504821777344,0.27305209613340437
65909,-0.07559280395507813,10.021659851074219,1.4346166992187501,0.6092340072474475
65977,0.2908451843261719,10.126441955566406,1.4425502014160156,0.08445736640067532
66043,-2.9228219604492187,9.777966613769532,3.1832803344726566,0.933985118173446
66110,-1.2470567321777344,8.367599487304688,1.5358062744140626,0.5236506395444066
66177,2.754871215820313,9.050030364990235,1.1499087524414062,0.9360708681830239
66243,-4.205654296875,9.373807067871095,1.2768447875976563,1.3696982634289416
66309,-0.8894503784179688,9.066645812988282,3.0039532470703127,0.657576804491889
66377,0.9867480468750001,9.385632476806641,2.308649139404297,0.5981819968891051
66443,2.009271697998047,10.417436828613281,3.1290930175781253,0.5233338511627718
66510,1.0517129516601562,11.14252899169922,3.4618510437011722,0.314135358057437
66577,-0.42840911865234377,10.356812896728517,2.801274719238281,0.4463872306178943
66643,0.5382806396484375,9.102271728515625,1.8622773742675782,0.5019692715378842
66710,0.40550674438476564,9.729766845703125,2.099983062744141,0.09848115586629673
66777,0.6436614990234375,8.989855499267579,2.092199249267578,0.17271765861439145
66843,-0.23067031860351564,9.93693603515625,2.272424468994141,0.2885118731813597
66910,0.9325607299804688,8.57701400756836,0.7300318908691407,0.5311219721128914
66978,0.32841705322265624,9.948013000488281,1.0936257934570313,0.2753211815022526
67043,2.1573138427734375,9.722282409667969,1.6965719604492189,0.433636127787421
67110,1.1213182067871095,11.202254791259767,2.3056553649902347,0.4469938498590794
67177,0.6048921203613281,10.875035247802735,2.0941452026367187,0.16892416066768925
67243,1.0689271545410157,9.395811309814453,1.9935543823242188,0.37526268547600855
67310,1.111139373779297,9.192833404541016,1.8904188537597657,0.14897862227260408
67377,0.08517288208007813,8.903934173583984,1.986369323730469,0.272031502098867
67443,0.33141082763671875,10.118807830810548,1.7841398620605469,0.3086115541352441
67510,1.569935302734375,9.608219604492188,2.049537963867188,0.21534680616960775
67577,0.3138972473144531,9.951156463623047,1.7820442199707032,0.2793174402938363
67643,-0.04206253051757813,8.945697326660156,1.597328338623047,0.2869437262944747
67710,1.0162367248535156,9.357341308593751,1.3192066955566406,0.24550955946690528
67777,0.9421408081054689,9.378597106933594,1.4724879455566406,0.044740487548320225
67843,0.8503816223144531,10.274334411621094,1.3838722229003908,0.2291410132412412
67910,1.0719209289550782,9.573042755126954,1.204395446777344,0.13834262112643084
67977,0.417930908203125,9.765093383789063,0.8126600646972657,0.18747538263260385
68043,0.20372634887695312,9.598639526367188,0.7421566772460938,0.10827973390507398
68110,-0.3838018798828125,9.977052612304687,1.3343252563476564,0.23403772959115968
68176,-0.2788700866699219,9.837393035888672,1.5813116455078127,0.09823121664173026
68243,0.36284545898437504,10.08587631225586,1.581760711669922,0.14675830090028813
68309,-0.09116043090820312,9.608968048095704,1.21427490234375,0.15440431367023955
68376,1.1753558349609377,9.372459869384766,0.6231541442871094,0.3596081144109539
68443,1.6218772888183595,9.13310760498047,0.44442581176757817,0.22243539942239998
68510,1.2337344360351563,10.397079162597656,0.9434880065917969,0.3170511078912702
68577,0.71132080078125,9.483678588867187,1.4486874389648439,0.20520046043563955
68643,0.7691006469726563,9.940378875732423,1.387764129638672,0.11753457034854992
68710,0.6027964782714844,9.351503448486328,1.8365309143066406,0.1889904314690336
68776,1.0434800720214845,9.525591430664063,1.7642312622070313,0.09675579247628537
68843,0.4966671752929688,8.978778533935547,1.8625767517089844,0.17731508923421377
68910,0.5601351928710938,10.316995697021484,1.7965640258789064,0.30149783707296673
68977,0.5825885009765626,9.357041931152343,1.1481124877929687,0.23280097381771925
69043,0.8044271850585938,9.943073272705078,0.920885009765625,0.14397210656011467
69110,0.5848338317871095,9.166937255859375,0.7366181945800782,0.1819755645977625
69177,0.5653742980957032,9.668544158935548,0.8650511169433595,0.08355686475536593
69243,0.5011578369140626,9.562714233398438,1.0252180480957032,0.06107392882547729
69310,0.5063969421386719,10.032437438964845,1.0675799560546875,0.11873305317498486
69377,0.4093986511230469,9.864187316894531,0.9351054382324219,0.03912404276315497
69443,0.6044430541992187,9.852212219238282,0.969833221435547,0.04295679632342958
69510,0.365240478515625,9.826316070556642,1.0023156738281251,0.03803421727275633
69577,0.4219725036621094,9.861792297363282,0.9773176574707032,0.01122267294719853
69643,0.6551875305175782,9.49625244140625,1.3190570068359375,0.13542279944990782
69710,0.702938232421875,9.695039062500001,1.4699432373046877,0.06986796575200636
69777,0.9559121704101563,9.578730926513673,1.6191828918457032,0.08981054222205735
69843,0.8030799865722656,9.350455627441407,1.7862355041503908,0.08352019844058128
69909,0.9764195251464844,9.656269683837891,1.6828005981445313,0.0680458228157302
69977,0.93166259765625,9.310189361572267,1.4897021484375002,0.08582214861471697
70043,0.6277944946289062,10.042466583251954,1.3922547912597656,0.18123831105075786
70110,0.42706192016601563,9.560618591308595,1.1810440063476564,0.12092709868988691
70176,0.599952392578125,10.332263946533203,1.227597198486328,0.17531729079019676
70243,0.45041336059570314,9.371412048339844,1.1044033813476564,0.2018400301834996
70310,0.45235931396484375,10.254276123046875,1.2850776672363282,0.17729240774663568
70377,0.6197113037109375,9.637408905029297,1.3115725708007813,0.12464690759605501
70443,0.5930667114257813,10.155182189941407,1.304088134765625,0.10185379632929965
70510,0.7393125915527344,10.030341796875,1.3651611328125002,0.041791870225294944
70576,0.6494993591308594,9.363478546142579,1.2983999633789063,0.16914178017140336
70643,0.7517367553710937,9.984986114501954,1.3349240112304688,0.11566801229049749
70710,0.8015830993652344,8.969497833251953,1.2470567321777344,0.22718415818244608
70777,0.7447013854980469,9.591155090332032,1.3480966186523438,0.09993774689099832
70843,0.8403524780273438,9.661359100341798,1.36755615234375,0.05250984465442595
70910,0.7430548095703126,9.498497772216798,1.3232482910156251,0.03585770734152692
70976,0.5981561279296875,10.346184997558595,1.3570779418945313,0.20854640579869083
71043,0.6348298645019531,9.274413757324218,1.2684622192382813,0.21780686870983978
71110,0.5803431701660157,9.483828277587891,1.3190570068359375,0.01591000334611457
71177,0.5944139099121094,10.15772689819336,1.3726455688476564,0.16870393358323713
71243,0.4056564331054688,9.350904693603516,1.1190728759765625,0.1768604809445546
71310,0.2832110595703125,10.175839233398438,0.9569599914550782,0.18035542209254476
71377,0.477806396484375,9.571096801757813,0.8857081604003907,0.12026860597370372
71443,0.4806504821777344,9.240135040283203,0.9072633361816407,0.11737898025318923
71509,0.640667724609375,10.196795654296876,1.0837463378906251,0.21696197435145942
71577,0.48154861450195313,9.05122787475586,1.0303074645996095,0.23367976076142802
71643,0.5075944519042969,10.009984130859376,1.0868898010253907,0.1830754461489384
71710,0.5138813781738282,9.100625152587892,0.9354048156738282,0.18528781754500134
71777,0.5014572143554688,9.684860229492188,0.9535171508789063,0.10072098767785156
71843,0.6274951171875001,9.287286987304688,0.9632469177246095,0.08028540010948217
71910,0.544866943359375,9.472451934814453,1.0481204223632814,0.03466970740421551
71977,0.5965095520019531,9.648485870361329,1.011746063232422,0.05137496264311747
72043,0.5056484985351563,9.607920227050782,1.0292596435546875,0.021626195103906648
72110,0.6017486572265626,9.846524047851563,1.0288105773925782,0.06315322169903251
72177,0.5604345703125,9.507030029296876,0.991388397216797,0.07061972699957032
72243,0.6032455444335938,10.082882537841797,1.0803034973144532,0.12841260758450423
72310,0.5893244934082031,9.405391387939453,0.9940827941894532,0.1387421939461488
72377,0.4728666687011719,10.081235961914063,1.0844947814941406,0.1389329521040237
72443,0.5279521179199219,9.375453643798828,1.0139913940429688,0.1435493962080496
72510,0.5212161254882812,10.242301025390626,1.1322454833984374,0.18291052342430975
72577,0.5224136352539063,9.620194702148439,1.0318043518066407,0.1118212987043712
72643,0.45161087036132813,9.85834945678711,0.987945556640625,0.03970165864283019
72710,0.43529479980468755,10.027647399902344,1.0174342346191407,0.054861187038382817
72777,0.5084925842285156,9.633067932128906,0.9199868774414063,0.09292631080961973
72843,0.5376818847656251,10.094558258056642,0.961600341796875,0.014677818768552668
72910,0.3477268981933594,9.416468353271485,0.9286688232421876,0.08646314888686321
72977,0.3688330078125,9.907896423339844,1.0273136901855469,0.10697434244896425
73043,0.36598892211914064,9.519005126953125,1.0041119384765627,0.07117014486188583
73110,0.4926255798339844,9.990823974609375,0.9818083190917969,0.10504303376544273
73177,0.38170623779296875,9.484127655029297,0.6932084655761719,0.10265059258795199
73243,-0.055384826660156254,10.323582000732422,0.5736071777343751,0.2419554541750655
73310,0.030835876464843752,10.801388397216797,0.15762222290039063,0.20907481990620072
73377,0.015417938232421876,9.100774841308594,-0.11870315551757814,0.3968561931526298
73443,-0.11825408935546876,8.979526977539063,-0.23306533813476563,0.14163667312949568
73510,-0.053438873291015626,10.396480407714844,0.7108717346191407,0.3930734716762525
73577,0.4589456176757813,9.91867401123047,1.3837225341796875,0.25393530423908794
73643,0.7876620483398438,9.08954818725586,1.0626402282714844,0.24472397262730433
73710,0.10044113159179688,8.563841400146485,0.8276289367675782,0.24384726064629422
73777,-0.0089813232421875,9.502090301513672,0.9945318603515626,0.20017199135895558
73843,0.5565426635742188,10.055788879394532,1.1126362609863283,0.22681064606654303
73910,0.6960525512695312,9.529034271240235,1.0545570373535156,0.10817234354328166
73977,0.5068460083007813,10.184371490478517,1.1888278198242188,0.1725591826465506
74043,0.6424639892578126,8.565937042236328,1.1864328002929687,0.3744745823346143
74110,0.681233367919922,9.59295135498047,1.3400134277343752,0.17029002569702098
74177,0.7966433715820312,10.060279541015625,1.7847386169433594,0.20156312527587258
74243,0.7702981567382813,9.206006011962891,1.8869760131835938,0.18275482281384653
74310,0.8704399108886719,9.951006774902345,1.803150329589844,0.14517803007213365
74377,1.05141357421875,9.655670928955079,1.6218772888183595,0.07961831567202857
74443,0.8249345397949219,9.066196746826172,1.3106744384765625,0.13304571204573937
74510,0.36778518676757815,9.311686248779298,1.0823991394042969,0.21935954077047934
74577,0.6480024719238282,9.633516998291016,0.9729766845703125,0.07304357804697467
74643,0.41089553833007814,9.974657592773438,1.0612930297851564,0.1079176738963157
74710,0.35820510864257815,9.573192443847656,1.0449769592285156,0.0807141131136201
74780,0.5864804077148438,9.818681945800781,1.0225236511230469,0.06624152599060788
74843,0.4646337890625,9.658065948486328,1.0782078552246095,0.03669829416174085
74910,0.21959335327148438,9.861492919921876,1.1009605407714844,0.07926859771103152
74977,0.2839595031738281,10.02405487060547,1.0900332641601562,0.05150885377967538
75043,0.38514907836914064,10.300829315185547,1.157991943359375,0.0874946827650977
75110,0.052241363525390626,10.22329055786133,0.75443115234375,0.12355074502375832
75177,-0.32677047729492187,9.790540466308594,0.38574783325195316,0.19537303887168866
75243,0.07155120849609375,9.690099334716797,0.032183074951171876,0.18952384172742615
75310,-0.061372375488281256,9.02443359375,0.38694534301757816,0.1352205741412304
75377,-0.28291168212890627,10.701845397949219,0.7586224365234375,0.4091254715367565
75443,-0.18905685424804688,10.078840942382813,0.3799099731445313,0.09044958867284267
75511,-0.4082011413574219,9.6710888671875,0.31853759765625,0.1314319652984305
75577,-0.43260040283203127,10.469678192138673,0.5899232482910156,0.1816772862686997
75642,-0.00748443603515625,9.495204620361328,0.3799099731445313,0.22829341084462385
75710,-0.36060012817382814,10.169402618408204,0.5538482666015625,0.13825154923759628
75777,-0.09729766845703125,9.579329681396485,0.4525090026855469,0.1292413376926581
75843,-0.5191204833984375,9.686656494140626,0.46762756347656254,0.09296906307587326
75910,-0.34099090576171875,9.711654510498047,0.4369413757324219,0.02335323551892409
75977,-0.8387059020996094,9.720037078857422,0.4709207153320313,0.11933489265372822
76043,-0.6307882690429688,9.90580078125,0.2827619934082031,0.06168490344687142
76110,-0.2130070495605469,9.636959838867188,0.35940261840820314,0.11404779972832801
76177,-0.5125341796875,9.923613739013673,0.30910720825195315,0.07125003420072863
76243,-1.0832972717285156,9.96417938232422,-0.21136047363281252,0.21376521831566844
76310,-1.3717474365234377,10.151739349365235,-0.17468673706054688,0.12750735453585973
76377,-1.1773017883300783,9.62453567504883,-0.5228627014160157,0.17060362743106175
76443,-1.0823991394042969,10.327623596191406,-0.45116180419921875,0.147947506757567
76510,-1.218915252685547,11.03475311279297,-0.1598675537109375,0.22840729242958013
76577,-1.2744497680664064,9.810748443603517,-0.7420069885253907,0.2833641382052359
76643,-1.1156300354003907,9.83110610961914,-0.16735198974609375,0.13080180244813353
76710,-0.6976991271972657,9.794881439208984,0.15283218383789063,0.1423255879110555
76777,-0.6494993591308594,9.435478820800782,1.072819061279297,0.2803200027906643
76843,-0.8360115051269532,10.254126434326173,0.9683363342285157,0.1936748849380214
76910,-1.453926544189453,10.008038177490235,0.959205322265625,0.173008122199632
76977,-1.5850538635253908,10.022557983398437,1.118324432373047,0.09292285735035778
77043,-1.7077986145019532,10.383607177734376,1.0503657531738282,0.1056071864776542
77110,-1.498982849121094,10.992840270996094,1.3169613647460938,0.19030586917712888
77177,-0.8170010375976563,10.552006988525392,0.9261241149902344,0.2086506112862617
77243,-0.9684860229492188,10.670560455322267,0.6156697082519531,0.09913273384945213
77310,-0.6941065979003906,9.864786071777344,0.11705657958984375,0.25783958561243947
77377,-0.3207829284667969,9.701924743652345,0.4632865905761719,0.15126029906403107
77443,-0.6243516540527344,9.624685363769531,0.7997868347167969,0.11564629052168116
77510,-0.20312759399414063,9.703870697021484,1.0282118225097656,0.12402299542069992
77579,-0.6256988525390625,9.624984741210938,0.9214837646484375,0.08438424127304088
77643,-0.21630020141601564,10.061776428222657,1.1404783630371094,0.14723616524872735
77710,-0.2856060791015625,10.044412536621094,1.1804452514648438,0.03200839814802413
77777,-0.40386016845703127,9.371112670898437,0.5502557373046876,0.22263281051545925
77843,-0.3403921508789063,9.40763671875,0.5575904846191406,0.04914533305663894
77910,0.2525248718261719,9.743238830566407,0.21704864501953125,0.18928337406148105
77977,-0.38769378662109377,9.7956298828125,0.475411376953125,0.1341974175992956
78043,0.45415557861328126,9.525741119384767,0.5535488891601563,0.19146412915236108
78110,-0.3686833190917969,9.731563110351564,0.7625143432617187,0.18197885154965593
78177,-0.29174331665039066,9.822573852539064,0.8382568359375,0.04906870772347128
78243,-0.2743794250488281,10.078092498779297,0.5749543762207031,0.0919435338474844
78310,-0.6511459350585938,9.44206512451172,0.3095562744140625,0.18776428342667306
78377,-0.2794688415527344,9.510023803710938,0.336500244140625,0.07301069022957904
78443,-0.21600082397460937,9.841434631347656,0.5285508728027344,0.10739293399116412
78510,-0.43724075317382816,9.814041595458985,0.6544390869140625,0.07950949702491932
78580,-0.42870849609375,9.370962982177735,0.38559814453125,0.12238906986628142
78643,-0.3146456909179688,10.030641174316406,-0.07694000244140625,0.19108261081431366
78710,-0.01107696533203125,9.708061981201173,-0.1838177490234375,0.11123631854038593
78777,-0.45640090942382816,9.625284118652344,-0.26854156494140624,0.10284590992875611
78843,-0.7216493225097657,9.32665512084961,-0.33664993286132816,0.12426537810947992
78910,-0.6768923950195312,9.836195526123047,-0.730331268310547,0.17232805384055339
78977,-0.2483335876464844,10.129585418701172,-1.0756631469726563,0.15394445223991937
79043,-0.781973876953125,9.749376068115234,-1.414109344482422,0.18261423833911147
79110,-0.38050872802734376,10.20517822265625,-1.0535092163085937,0.13380044936133365
79177,-0.20986358642578126,9.638456726074219,-0.5040019226074219,0.20194310782922847
79243,0.34368530273437503,9.507179718017579,0.1167572021484375,0.24894239806034596
79310,0.3531156921386719,9.195827178955078,0.9518705749511719,0.27771433227319275
79377,0.15837066650390627,9.371112670898437,1.1832893371582032,0.1291731378199848
79443,-0.11271560668945313,9.653425598144532,1.0535092163085937,0.10796078407412217
79510,-0.14415023803710938,9.915530548095704,1.311123504638672,0.10932814312986326
79578,-0.259859619140625,9.904004516601564,1.0538085937500001,0.026928907922673648
79643,0.4471202087402344,9.620045013427735,0.75922119140625,0.1956971071416998
79710,-0.18830841064453127,10.09740234375,1.0988648986816407,0.16943363243432055
79777,-0.6222560119628907,9.846673736572265,0.7364685058593751,0.16271201608923128
79843,-0.43918670654296876,9.589209136962891,0.14864089965820312,0.18192903484825956
79910,0.389190673828125,9.41916275024414,0.3746708679199219,0.21903006704550315
79978,-0.5824388122558594,9.900711364746094,0.8928932189941406,0.25514319623250076
80043,0.024099884033203126,9.767937469482423,1.0437794494628907,0.1261604248262939
80110,0.1215472412109375,9.877808990478517,1.0880873107910156,0.06349210197397262
80177,-0.15612533569335937,9.900711364746094,0.6893165588378907,0.10922545731663118
80243,0.010777587890625,9.91582992553711,0.4674778747558594,0.08353858941956148
80310,0.02484832763671875,9.933792572021485,0.1035845947265625,0.11127860742549338
80377,0.6027964782714844,9.800120544433595,0.26539810180664064,0.15104257417990452
80443,-0.1047821044921875,9.406289520263673,0.08876541137695312,0.18066087442491488
80510,0.015867004394531252,9.732161865234376,0.21151016235351563,0.0841482436189862
80579,-0.015567626953125,9.968220977783204,0.05718109130859375,0.08644615028905844
80643,-0.061671752929687504,9.412576446533203,-0.24578887939453126,0.14717777683499492
80709,0.239501953125,9.347312164306642,-0.32721954345703125,0.09704413655435208
80777,0.0508941650390625,9.59295135498047,-0.22692810058593751,0.05924481076774681
80843,-0.1287322998046875,10.017468566894532,-0.2233355712890625,0.12957418135576337
80910,0.2710862731933594,9.956395568847658,-0.008532257080078126,0.1037979951243102
80977,0.1754351806640625,10.228230285644532,0.022303619384765626,0.07472178813958771
81043,-0.08637039184570312,10.052046661376954,-0.386795654296875,0.12013773241871198
81110,-0.488583984375,9.764794006347657,-0.6779402160644532,0.17103358400555263
81177,-0.15118560791015626,10.128238220214845,-0.7306306457519531,0.0975453932378305
81243,-0.34637969970703125,9.810598754882813,-0.5617817687988281,0.07810186571035667
81310,-0.11750564575195313,9.710007934570314,-0.9668394470214844,0.1257567799641798
81377,-0.5415737915039063,9.77691879272461,-0.9725276184082031,0.11608601562254796
81443,-0.10014175415039063,9.669741668701173,-1.4283297729492188,0.14762609875034394
81510,-0.305364990234375,9.606573028564453,-1.427431640625,0.04820912926007195
81578,-0.18621276855468752,9.477092285156251,-1.6136444091796875,0.06957081132458011
81643,-0.7767347717285157,9.538464660644532,-1.3467494201660157,0.15186118276378632
81710,0.6420149230957032,9.621841278076172,-1.008153533935547,0.33459869136889375
81777,-0.012124786376953125,9.776170349121093,-1.2925621032714845,0.19583504246448125
81843,-1.0108479309082032,10.055040435791016,-0.6643185424804687,0.2560488759489114
81910,0.49052993774414066,9.52783676147461,-1.0768606567382812,0.35161803836531247
81977,-0.39308258056640627,9.292526092529297,-1.295555877685547,0.1788906847640146
82043,-0.16136444091796875,9.356143798828125,-1.1437715148925782,0.03117899008847683
82110,0.5975573730468751,10.1117724609375,-0.9705816650390625,0.21168715888233736
82177,-0.9898915100097657,10.658435668945312,0.37197647094726566,0.47447494192431583
82243,-1.3097763061523438,10.047406311035157,1.1582913208007812,0.3364855528022541
82309,0.5827381896972657,9.388177185058595,0.5924679565429688,0.48190049071998503
82377,0.2591111755371094,10.089319152832031,1.0446775817871095,0.16165151842019918
82443,-0.680185546875,9.454938354492189,0.2736309814453125,0.31060027005033436
82511,0.25626708984375,9.26962371826172,1.4934443664550783,0.3263447314700897
82578,0.3691323852539063,9.737400970458985,1.1502081298828126,0.2071638510181804
82643,-0.5739065551757813,9.376052398681642,1.1832893371582032,0.21856647056902825
82710,-0.013022918701171875,9.585017852783203,1.3566288757324219,0.12871460880350494
82777,-0.3082090759277344,10.66397415161133,0.6688092041015625,0.32183139399695465
82843,-0.36853363037109377,9.487420806884765,1.024768981933594,0.2317382366483119
82910,-1.4166540527343752,9.761201477050781,0.9342073059082032,0.26933951465475814
82977,0.55324951171875,9.096583557128907,0.8927435302734376,0.4556338662169074
83043,0.5117857360839844,9.772278442382813,1.4678475952148438,0.21931705258287781
83110,-0.7773335266113282,11.341764678955078,2.0041822814941406,0.5397386295237885
83177,-1.6530125427246094,8.944050750732423,1.4579681396484376,0.5833333587365099
83243,1.0321037292480468,9.006770324707032,0.98914306640625,0.6236977470941868
83310,-0.19594253540039064,8.960067443847656,1.6383430480957033,0.2060874666353081
83377,-2.817441101074219,10.852731628417969,1.0026150512695313,0.844795700756457
83443,-1.0365943908691406,10.231822814941406,1.1132350158691406,0.2743904791560805
83510,0.8449928283691407,8.712332611083985,0.31748977661132816,0.6939778548384534
83580,0.4321513366699219,9.755213928222657,-0.27916946411132815,0.20597305798633284
83643,-1.4898518371582032,9.396260375976563,1.4849121093750002,0.5143309192903456
83710,0.06735992431640625,9.92930191040039,2.1459375,0.39856829167753005
83777,0.8514294433593751,10.269993438720704,1.3738430786132814,0.3204750609883645
83844,0.7825726318359375,10.711874542236329,1.0319540405273437,0.18951308153698618
83910,-0.27767257690429686,9.364825744628908,1.323098602294922,0.39601521939554074
83978,-0.6638694763183595,9.392518157958985,1.2615765380859376,0.1738513298404705
84043,0.2082170104980469,9.526788940429688,0.9478289794921876,0.19576005602163044
84110,-1.1814930725097657,10.716065826416017,1.0147398376464845,0.4273383713908213
84177,-0.4400848388671875,9.108858032226562,0.9636959838867188,0.19962498111758914
84243,1.0066566467285156,9.674831085205078,0.8857081604003907,0.3943926008477156
84310,-0.5649252319335938,8.892557830810548,1.1491603088378908,0.3679324866297893
84377,-0.7414082336425781,9.907896423339844,1.2865745544433593,0.2384152454408151
84443,-0.08786727905273438,11.020981750488282,1.6254698181152345,0.36783377337429723
84510,0.7217990112304687,9.804461517333985,1.7419276428222656,0.32828483575295553
84579,-0.926722869873047,10.561287689208985,1.945953369140625,0.38306734957287
84643,-0.6506968688964844,8.722960510253907,1.7497114562988283,0.5267423338103215
84710,0.15298187255859375,8.575367431640625,0.38170623779296875,0.23726965591374158
84777,0.5063969421386719,8.837322692871094,0.20567230224609376,0.13860753374586082
84843,-0.6209088134765626,9.800419921875001,0.7063810729980469,0.37135536476882774
84910,-0.7198530578613281,9.495803375244142,1.9145187377929689,0.3398646415453713
84977,1.0635383605957032,10.508148193359375,1.9270925903320313,0.49898800837049484
85043,-0.21420455932617188,10.049651641845704,1.5364050292968752,0.232720716345227
85110,-0.7804769897460938,9.516161041259766,0.8538244628906251,0.30895118221732354
85177,0.379610595703125,9.380093994140626,1.176104278564453,0.2535820906322547
85244,-0.6932084655761719,8.703650665283204,0.850082244873047,0.288892694749189
85310,0.47870452880859377,9.474098510742188,1.144669647216797,0.2871235084454839
85377,-0.35057098388671876,10.410251770019531,1.263223114013672,0.31096441217994325
85443,-0.5167254638671875,9.43967010498047,0.8165519714355469,0.20039029496358
85510,-0.6274951171875001,8.827892303466797,1.5676899719238282,0.2586549764025023
85579,0.566422119140625,10.526859283447266,0.9092092895507813,0.5376781085278455
85643,-0.20058288574218752,10.49737060546875,1.3831237792968751,0.2194462912971686
85710,-2.078727264404297,8.818012847900391,1.6293617248535157,0.6571626653809547
85777,1.3189073181152344,7.891140289306641,-0.13711486816406251,0.8979835353531637
85843,0.8259823608398438,9.495054931640626,0.4099974060058594,0.3247110518026368
85910,-1.3980926513671876,11.509266357421875,2.3237677001953125,0.9327496112535762
85977,-0.31883697509765624,11.88738006591797,2.710862731933594,0.3513847432676129
86043,1.2135264587402343,10.699600067138672,2.448608093261719,0.47942760318175104
86110,1.0252180480957032,11.599229278564454,0.7512876892089844,0.4616335047281022
86177,-1.1156300354003907,10.435698852539064,-0.014220428466796876,0.6499987405325864
86243,-0.6253994750976563,9.187294921875,0.7044351196289063,0.43884706854975414
86310,0.9446855163574219,10.06237518310547,0.8583151245117188,0.27616822594651197
86377,0.31210098266601566,10.28705795288086,0.8924441528320313,0.20662126284546684
86443,0.20193008422851563,9.279203796386719,0.8813671875000001,0.23026487532714912
86510,-1.1325448608398438,8.803043975830079,0.6077362060546875,0.3821321899833552
86580,1.292113037109375,8.289911041259765,1.1786489868164063,0.5652519073339454
86643,0.015717315673828124,9.456734619140626,1.7720150756835937,0.3604101214659115
86710,0.29054580688476567,9.915231170654298,2.2553599548339847,0.24342570027828525
86777,1.1096424865722656,10.357261962890625,2.352807312011719,0.2691661865541682
86843,1.0639874267578127,9.98289047241211,3.429817657470703,0.2938272131668816
86910,0.2507286071777344,9.26198959350586,1.8001565551757814,0.43332132435691834
86977,0.6936575317382813,9.32381103515625,2.0142114257812502,0.0769638896960016
87043,0.9610015869140626,9.544452209472658,1.8999989318847657,0.13203673652055903
87110,0.03906875610351563,10.34843032836914,2.637814636230469,0.3632718496650052
87177,1.0027647399902344,8.68957992553711,2.4996519470214844,0.40883211273196174
87243,0.7002438354492188,10.233319702148439,2.1472846984863283,0.3099404244584269
87310,-0.06616241455078126,8.75379638671875,2.7128086853027344,0.37725602911486245
87376,1.4552737426757814,9.286538543701173,2.0305274963378905,0.36369036083099415
87443,0.805924072265625,9.452243957519531,2.4647744750976566,0.12214187659285643
87510,0.8747808837890625,9.701325988769531,2.787802734375,0.1251245836956953
87581,1.3636642456054688,10.389894104003906,2.57943603515625,0.22821866804275037
87643,0.036374359130859374,9.159153442382813,3.114722900390625,0.41776729675638485
87710,2.624642028808594,9.128766632080078,2.5201593017578126,0.5880298337281337
87777,0.9812095642089844,9.20974822998047,2.8163932800292972,0.27166487191610833
87843,1.05620361328125,8.50561248779297,3.8229002380371098,0.32526782667458903
87910,2.914439392089844,10.468330993652344,3.6036062622070313,0.6514802542639462
87977,3.1320867919921875,10.002350006103516,4.78090805053711,0.37240358008968194
88043,3.1558872985839845,10.424621887207032,4.819378051757813,0.13430486433941588
88110,2.2722747802734378,8.829239501953126,4.056414642333984,0.46413191267306125
88177,1.7245637512207033,7.703430633544922,2.9828471374511722,0.5231120383112718
88243,2.2803579711914064,8.59377914428711,3.300935668945313,0.1578601310385393
88310,4.141737213134766,9.335337066650391,3.6732115173339848,0.5425494270003639
88377,3.5348991394042972,11.49609375,4.2098455810546875,0.6158263848961825
88443,3.331172790527344,9.634864196777345,3.77978988647461,0.32911897601360873
88510,3.390748901367188,9.235494689941406,3.0124855041503906,0.27507353283530145
88580,3.160078582763672,8.928932189941406,0.9111552429199219,0.5929701231814675
88643,3.8481976318359377,7.742798767089844,0.5484594726562501,0.43238047945305985
88711,2.777923278808594,10.496472473144532,1.8338365173339846,0.6993479580575549
88777,3.3861085510253908,9.065298614501954,1.5301181030273439,0.22719368692899314
88843,4.312831420898438,10.201286315917969,1.349294128417969,0.3486678851427104
88910,5.016667785644532,9.210346984863282,2.0863613891601562,0.3509448916088225
88977,5.190157012939453,7.5823324584960945,1.8758990478515627,0.46610520163337327
89043,5.025948486328125,9.242530059814454,2.3336471557617187,0.3219598055463139
89110,4.23439453125,8.917256469726563,2.2412892150878907,0.2018416132014109
89176,3.2195050048828127,9.859996032714845,1.72201904296875,0.4048293684357106
89243,3.4486784362792973,8.504115600585937,1.725312194824219,0.2827870024497884
89310,2.7574159240722658,8.696016540527344,2.378553771972656,0.2370029080764387
89377,2.5234524536132814,9.478289794921876,1.5269746398925783,0.27745220769978446
89443,1.20469482421875,9.025930480957031,1.0445278930664064,0.3969243476778327
89510,1.219214630126953,9.379046173095704,2.566113739013672,0.3572113202067014
89581,4.627028045654297,9.434730377197265,0.7780819702148438,0.9067290116192656
89643,4.770280151367188,11.31212631225586,1.714833984375,0.5547527911488679
89710,3.776347045898438,11.020981750488282,2.0170555114746094,0.2231377975722657
89777,3.362457733154297,10.867700500488281,2.0038829040527344,0.1546894902904444
89843,0.3776646423339844,11.618239746093751,2.7496321105957033,0.8271429850117308
89910,4.133204956054688,9.43967010498047,0.8969348144531251,0.9867149685082948
89977,1.4566209411621094,9.59968734741211,1.426084442138672,0.4916296794292987
90043,0.10597961425781251,8.447982330322265,2.1742286682128906,0.5860904521511148
90110,4.983736267089844,8.374934234619142,2.1534219360351563,1.1097812974238748
90179,4.3189686584472655,11.83708465576172,3.0597871398925784,0.8813909850225882
90243,2.9271629333496096,10.654693450927734,-1.1373348999023438,1.0439795115120838
90310,4.27031982421875,14.639107818603517,1.1713142395019531,1.0603347781148198
90377,-0.5560935974121094,12.340637512207032,0.058528289794921876,1.205636958843269
90443,-0.7649093627929688,8.123606872558595,0.6981481933593751,1.1913061491187218
90510,3.144361267089844,9.458680572509767,0.39577697753906255,0.895500676646205
90578,-0.7270381164550782,8.659791870117187,0.19968475341796876,0.8179306478010083
90643,-1.2145742797851564,9.042545928955079,-0.20627105712890625,0.29921302427378216
90710,0.6035449218750001,6.611301727294922,-1.3599220275878907,0.7779310228762483
90777,1.1621832275390627,9.66674789428711,-0.3592529296875,0.6805876731226561
90843,3.7350329589843754,12.47131576538086,-0.4644841003417969,0.9718177228687759
90910,1.1156300354003907,12.001742248535157,2.986439666748047,0.8927930312081729
90977,2.0326231384277347,9.397757263183594,1.4205459594726564,0.6710622744578276
91043,0.1537303161621094,9.763297119140626,1.3353730773925783,0.44097263674629955
91110,-0.8949888610839845,9.953401794433594,2.8852500915527344,0.524658670537045
91177,-3.239114227294922,11.534114685058594,-0.05179229736328125,1.0170456428877253
91243,1.2748988342285157,8.383915557861329,-0.8078700256347656,1.230135768202591
91310,2.169438629150391,7.571854248046876,0.73527099609375,0.6664616872761474
91377,0.025746459960937502,9.405092010498047,-1.4611116027832032,0.7311393685912356
91444,1.0725196838378908,9.33818115234375,0.7713459777832031,0.47248239678926485
91510,-0.4005670166015625,8.283175048828125,0.8113128662109376,0.42751888312678965
91579,2.4852818298339847,10.495125274658204,0.27378067016601565,0.8131619830969694
91643,0.55564453125,10.183772735595703,2.236499176025391,0.5673994747546954
91710,-0.9467811584472656,12.291090545654297,1.9037411499023438,0.7062660914502372
91778,-0.85023193359375,8.504414978027345,1.8293458557128908,0.8171728669638078
91844,-0.23995101928710938,10.301577758789064,2.3306533813476564,0.30434968074673396
91910,0.7743397521972657,9.085057525634767,-0.03577560424804688,0.6747764935035262
91978,0.08891510009765625,7.903863830566407,-0.9809101867675781,0.5983207415108533
92043,0.35042129516601567,10.786868591308595,1.7356407165527346,0.8817301335379838
92110,-0.38455032348632817,8.960516510009766,1.5525714111328126,0.3432957459136958
92177,1.2584330749511718,8.537645874023438,-1.3464500427246096,0.8148093468053035
92243,2.3646327209472657,8.223898315429688,-1.4982344055175782,0.4449729012725733
92310,-0.7831713867187501,9.64609085083008,1.0277627563476563,0.9601217879203898
92377,-1.2714559936523437,12.043954467773439,0.5526507568359376,0.7425145414907633
92443,-0.5569917297363282,8.871302032470703,2.4926165771484374,0.8288925879774917
92510,2.0947439575195315,11.532318420410157,3.629352722167969,0.8780318726332975
92581,-1.9904109191894532,9.069789276123048,1.2597802734375,1.2054689373215943
92643,0.02005828857421875,8.94629608154297,2.6755361938476563,0.46697136719583937
92710,-0.11331436157226563,10.329419860839844,1.1790980529785158,0.4366876459251357
92777,1.0148895263671875,9.882000274658203,1.3275892639160156,0.2999400569516478
92843,-0.3008743286132813,8.676107940673829,0.9276210021972656,0.41638239063441557
92910,-0.09849517822265626,10.071655883789063,0.7523355102539063,0.2808473288118255
92978,0.3426374816894531,8.483159179687501,0.6658154296875001,0.3449456252210381
93043,-1.1476634216308594,9.530082092285157,1.152902526855469,0.39761966517189806
93110,1.0961705017089844,10.055040435791016,1.597178649902344,0.5269310639092754
93177,-0.6014492797851563,10.09216323852539,2.346071319580078,0.38114620328319876
93243,0.31105316162109375,7.9396394348144534,1.4903009033203125,0.6490728935479815
93310,0.1574725341796875,12.012070770263673,0.9610015869140626,0.9028692380521874
93377,0.511336669921875,9.245523834228516,2.0414547729492187,0.5563641857064046
93443,1.2174183654785158,9.689500579833984,0.4781057739257813,0.38564400393592463
93511,1.4338682556152345,11.735895080566406,0.9996212768554688,0.5232976574290877
93581,-1.9535874938964846,8.930279388427735,3.8971458435058595,1.2429699602977569
93643,2.694696350097656,8.383466491699219,2.1344114685058595,1.0296374888481044
93710,2.091899871826172,8.02810546875,1.1543994140625,0.35867301009412106
93777,2.435585174560547,9.699978790283204,1.4211447143554687,0.39352239904980435
93843,-1.5899935913085939,9.960287475585938,1.9983444213867188,1.0023644381141041
93910,0.37437149047851564,10.809471588134766,1.9878662109375,0.3540061900079234
93977,0.20118164062500002,10.425220642089844,2.827919311523438,0.22144889868386614
94043,1.1879296875,7.459587707519532,1.191222839355469,0.8429203562411389
94110,-0.7551795959472657,9.210646362304688,1.6337026977539064,0.42900483535842965
94177,2.100282440185547,7.789202270507813,1.5745756530761719,0.6919974571260211
94244,0.28261230468750004,11.766581268310548,2.9858409118652345,1.0295533027717423
94310,0.34937347412109376,10.183024291992188,3.68593505859375,0.31581643207468146
94377,-1.9730470275878906,9.27246780395508,2.9620404052734375,0.6631356552348505
94443,0.06691085815429688,9.27246780395508,1.9878662109375,0.4573809065530037
94510,0.6957531738281251,10.192454681396486,0.7932005310058594,0.49114565226114065
94581,0.8331674194335938,9.313183135986328,1.1032058715820312,0.21419594414856521
94644,0.36778518676757815,9.720935211181642,0.33245864868164066,0.13928348238928928
94710,0.8280780029296876,8.541687469482422,1.4374607849121095,0.3873619975972628
94777,0.3592529296875,9.317673797607423,1.7411791992187502,0.20707117255528723
94843,-0.0520916748046875,10.406659240722657,2.5536895751953126,0.40529183366654137
94910,0.41987686157226567,9.56615707397461,2.472408599853516,0.164485493347824
94977,0.2655477905273438,9.432185668945314,2.4051983642578127,0.06953493462201682
95043,0.17064514160156252,10.062225494384766,2.9487181091308594,0.19641552247561628
95110,1.012943572998047,10.228379974365234,2.271376647949219,0.2564682880115609
95177,0.6707551574707031,8.962761840820313,2.2038670349121094,0.3035227262133008
95243,-0.6104306030273438,9.487869873046876,1.5319143676757814,0.3796191216308041
95310,0.5266049194335938,8.786129150390625,1.5480807495117188,0.2616993623751053
95377,-0.07559280395507813,9.632020111083985,0.7153623962402345,0.2950179999046728
95443,0.15777191162109375,9.006620635986328,0.7370672607421875,0.12816202183816355
95510,-0.3674858093261719,10.205477600097657,1.3823753356933595,0.3330942077534734
95577,-0.8725355529785157,10.369686126708984,1.4567706298828125,0.19906533247743907
95643,0.014519805908203126,8.868607635498048,1.3516891479492188,0.39319202391398983
95710,0.17034576416015626,9.61929656982422,1.48251708984375,0.13477735388960618
95777,-0.26180557250976566,9.649384002685547,1.744771728515625,0.1180822065399986
95843,0.1790277099609375,11.281589813232422,2.0544776916503906,0.4361467729754203
95910,0.14340179443359377,9.6902490234375,2.1514759826660157,0.2979950028799223
95977,-0.5295986938476562,9.700876922607423,1.981728973388672,0.18204971198544112
96043,0.5469625854492188,9.226064300537109,1.4578184509277345,0.2995805636585645
96110,-0.057330780029296875,8.782686309814453,1.0952723693847657,0.21344430747375487
96177,0.12334350585937501,10.007289733886719,1.2708572387695314,0.27107303017134343
96243,0.40266265869140627,9.208101654052735,1.393751678466797,0.15593698515291338
96310,-0.20133132934570314,9.719588012695313,1.3736933898925783,0.16269967990484063
96377,0.5737568664550782,8.897347869873048,0.8942404174804688,0.27030974067916974
96443,-0.053887939453125006,9.06514892578125,1.0621911621093751,0.11742231399323606
96510,0.38290374755859374,10.843899993896486,1.2543914794921875,0.45385133998216776
96580,0.0580792236328125,9.230704650878907,1.4569203186035158,0.3194994510511301
96643,-0.06256988525390625,9.987081756591797,1.3263917541503907,0.11600830445021935
96710,0.9234297180175782,8.963659973144532,0.9921368408203125,0.34531347381834665
96777,-0.4218228149414063,9.438472595214844,1.077908477783203,0.2815757364949542
96843,-0.39233413696289066,10.286309509277345,1.3190570068359375,0.2431977201179917
96910,0.6822811889648438,9.55463104248047,1.2772938537597658,0.28299812779259953
96977,0.20657043457031252,10.30576904296875,1.0235714721679687,0.17716698528413224
97044,-0.0940045166015625,9.547745361328126,1.3130694580078126,0.1838136167090835
97110,0.20073257446289064,9.422755279541017,1.1003617858886718,0.09436484466428482
97178,0.5418731689453126,9.921667785644532,0.9497749328613282,0.15309065188809914
97243,-0.2591111755371094,9.104217681884766,1.1885284423828126,0.25429043384444544
