relative_time,AccX,AccY,AccZ
0,0.47720764160156254,9.955796813964843,1.3684542846679688
50,0.17857864379882812,9.909093933105469,1.349443817138672
119,0.101788330078125,9.494605865478515,0.8951385498046875
183,0.5974076843261719,9.835746459960937,1.80344970703125
250,-0.04954696655273438,10.078391876220703,2.4709117126464846
316,0.7226971435546875,10.296937408447267,1.4865586853027344
384,1.3259426879882814,9.04688690185547,1.730251922607422
450,0.18606307983398437,8.414302368164062,1.0318043518066407
520,1.1888278198242188,9.840686187744142,0.7557783508300782
584,0.3200344848632813,9.149273986816407,0.6337820434570313
650,0.5025050354003906,9.234297180175782,1.1481124877929687
720,0.4245172119140625,10.575358428955079,2.0477416992187503
784,0.44113265991210937,8.757538604736329,1.3416600036621094
850,0.542322235107422,10.352920989990235,1.2695100402832031
919,0.257464599609375,11.224259033203126,1.8805393981933596
984,0.6033952331542969,9.18534896850586,0.6101312255859376
1050,0.7472460937500001,10.371931457519532,1.028511199951172
1119,1.0151889038085937,9.084458770751954,1.7202227783203126
1184,0.47795608520507815,9.288783874511719,2.235750732421875
1250,0.6120771789550782,9.602381744384767,1.4467414855957033
1319,0.367635498046875,10.27747787475586,1.2385244750976563
1384,0.3658392333984375,10.319390716552736,1.5630496215820313
1450,0.34727783203125,8.423882446289063,1.8670674133300782
1521,0.7967930603027344,9.38608154296875,1.992506561279297
1584,0.6170169067382812,9.009764099121094,1.3918057250976563
1650,0.2746788024902344,9.939929809570312,2.136207733154297
1720,0.2927911376953125,9.609866180419923,1.8941610717773438
1784,0.0664617919921875,9.71180419921875,1.7477655029296877
1850,0.49786468505859377,8.962312774658203,0.6279441833496094
1920,0.295784912109375,9.328451385498047,0.8713380432128907
1984,0.27692413330078125,10.459349670410157,1.6560063171386719
2050,0.20986358642578126,9.964927825927735,1.670526123046875
2120,0.5062472534179687,9.171727294921876,1.5346087646484377
2184,0.34757720947265625,10.110275573730469,1.8999989318847657
2250,-0.08532257080078126,10.552755432128906,1.8755996704101563
2320,0.865799560546875,9.845625915527345,0.5037025451660156
2384,0.04580474853515625,9.86074447631836,0.9568103027343751
2450,0.6319857788085937,9.237740020751954,2.0121157836914065
2519,-0.4046086120605469,9.517059173583984,1.855990447998047
2584,0.5837860107421875,9.156758422851563,1.6420852661132814
2650,0.5439688110351563,8.724008331298828,2.3204745483398437
2720,0.4231700134277344,9.145681457519531,2.253563690185547
2784,0.027093658447265627,10.207722930908204,2.693049774169922
2850,0.10208770751953125,8.902287597656251,2.202220458984375
2920,0.19953506469726565,9.392817535400392,1.991309051513672
2984,0.042810974121093755,10.453362121582032,2.072590026855469
3050,-0.3138972473144531,9.764943695068359,0.8042774963378907
3120,0.4655319213867188,9.370364227294923,0.32227981567382813
3184,0.03592529296875,9.562115478515626,1.2937596130371094
3250,0.4186793518066406,11.078162841796875,1.465602264404297
3320,0.7144642639160157,10.252180480957032,1.4808705139160157
3384,-0.08771759033203125,9.842033386230469,0.9425898742675781
3450,0.7179071044921875,10.281220092773438,0.5456153869628907
3519,0.08577163696289063,8.824599151611329,2.2436842346191406
3584,0.69216064453125,9.403595123291016,1.828597412109375
3650,-0.39966888427734376,9.595196685791016,2.22018310546875
3721,0.5947132873535157,11.072324981689453,4.258195037841797
3784,-0.8063731384277344,11.254795532226563,5.802084503173829
3850,-0.183218994140625,10.107132110595703,5.251379699707032
3920,-1.7426760864257813,10.922935638427735,2.847827911376953
3984,-1.2590318298339844,10.57730438232422,4.083657989501953
4050,-0.101788330078125,10.494227142333985,3.0802944946289066
4120,-0.5804928588867188,9.410331115722657,1.5432907104492188
4184,-0.8487350463867188,8.969348144531251,1.9055374145507813
4250,-0.1681004333496094,9.702523498535157,1.6866925048828125
4320,0.12543914794921876,10.201585693359375,3.8513410949707034
4384,-0.13007949829101564,8.453221435546876,2.571053466796875
4450,-0.38814285278320315,7.998317413330079,1.2722044372558594
4520,-0.9675878906250001,10.023905181884766,1.5864010620117188
4584,0.4986131286621094,10.969039764404297,5.173092498779297
4650,0.6325845336914063,8.302335205078126,1.5503260803222656
4720,0.2721340942382813,10.149344329833985,2.379451904296875
4784,-0.18830841064453127,8.842561798095703,1.5515235900878908
4850,2.1868025207519532,8.915160827636718,0.4182302856445313
4924,-0.8283773803710938,8.712033233642579,4.051923980712891
4984,-0.18411712646484377,10.08587631225586,1.3754896545410158
5050,0.6982978820800781,9.42769500732422,2.130220184326172
5121,0.7646099853515625,7.386539611816406,0.9198371887207032
5184,0.14998809814453126,8.652008056640625,1.4564712524414063
5250,0.32287857055664065,10.231673126220704,2.05013671875
5320,0.5519023132324219,9.853858795166015,3.6482135009765626
5384,0.5451663208007813,10.106832733154297,3.647015991210938
5450,-0.5513035583496094,8.381221160888673,2.5954527282714843
5520,0.8381071472167969,8.620274047851563,1.6337026977539064
5583,-0.007634124755859375,7.413483581542969,1.8999989318847657
5650,0.5966592407226563,8.18333267211914,1.9378701782226564
5720,0.21899459838867188,7.798333282470703,2.817740478515625
5784,0.24129821777343752,8.500373382568359,2.239193572998047
5850,-0.37197647094726566,8.341254272460938,3.428171081542969
5920,0.3800596618652344,10.754386138916017,3.911965026855469
5984,0.02245330810546875,9.577832794189453,2.524500274658203
6050,1.7089961242675782,9.889784088134766,2.788700866699219
6119,-0.5611830139160157,11.38966506958008,2.389930114746094
6184,-0.25462051391601564,11.213481445312501,2.271376647949219
6250,-0.5316943359375,9.163943481445314,0.5842350769042969
6320,0.2938389587402344,9.246272277832032,0.9660910034179688
6384,0.4549040222167969,9.967023468017578,2.2010229492187503
6450,1.3253439331054688,10.475066986083984,2.775378570556641
6519,0.060923309326171876,10.151739349365235,3.081042938232422
6584,0.2796185302734375,10.87054458618164,2.757864990234375
6650,1.2710069274902345,11.378737792968751,1.0002200317382812
6720,1.4388079833984375,9.880952453613281,0.12633728027343752
6784,0.12229568481445313,8.716823272705078,1.548230438232422
6850,1.1174263000488283,9.504635009765625,0.9044192504882813
6920,-1.097966766357422,10.394983520507813,2.4676185607910157
6984,-2.438279571533203,7.402855682373048,3.094514923095703
7050,1.1286529541015626,9.417965240478516,3.000809783935547
7125,0.7976911926269532,12.54840545654297,1.2906161499023439
7184,1.1499087524414062,8.797206115722657,1.4973362731933595
7250,-0.257464599609375,8.417445831298828,1.7676741027832032
7320,0.75922119140625,8.751251678466797,2.3978636169433596
7384,0.29189300537109375,7.946076049804688,2.699037322998047
7451,-0.2775228881835938,9.709558868408203,3.407813415527344
7520,-0.10777587890625001,11.813433837890626,1.5521223449707031
7584,-0.21420455932617188,9.460177459716798,0.5746549987792969
7650,1.0237211608886718,10.236014099121094,-0.3381468200683594
7720,-1.363813934326172,14.595099334716798,3.118165740966797
7784,1.2889695739746094,8.477620697021484,1.3742921447753906
7850,-1.7844392395019533,8.845405883789063,0.7798782348632813
7919,0.08607101440429688,10.185868377685548,1.277593231201172
7984,0.18142272949218752,8.229436798095703,1.651365966796875
8050,1.0485694885253907,8.731642456054688,0.16256195068359375
8120,-0.10508148193359376,8.334518280029297,1.7962646484375
8184,-0.4710704040527344,8.315058746337892,2.7363098144531253
8250,0.5255570983886719,9.267977142333985,3.377725982666016
8320,0.7797285461425781,8.954828338623047,2.719095611572266
8384,0.05957611083984375,8.6268603515625,1.6566050720214844
8450,-0.6833290100097656,9.76584182739258,2.266885986328125
8519,-0.6168672180175782,10.074949035644531,1.5390994262695312
8584,0.8422984313964844,8.947942657470703,1.8492544555664063
8650,0.027692413330078127,10.235415344238282,-0.19728973388671875
8721,0.9162446594238282,7.75073226928711,2.463127899169922
8784,-1.297950897216797,8.357570343017578,2.7638525390625
8851,-0.07080276489257813,5.988147583007813,-3.6949163818359376
8919,2.7488836669921874,5.603148193359376,-0.6858737182617188
8984,-0.7785310363769532,11.48456771850586,-4.034260711669922
9051,3.2795301818847657,8.6077001953125,-2.883603515625
9119,2.120640106201172,9.851912841796876,-1.8073416137695313
9184,0.6340814208984376,16.975599060058595,5.328768768310547
9250,2.665357360839844,9.290580139160157,1.7229171752929688
9321,0.5486091613769531,8.407865753173828,0.39532791137695317
9384,-1.3406121826171875,7.029082946777344,0.7047344970703125
9450,1.7061520385742188,7.487429809570313,0.5634283447265626
9519,1.3043875122070314,8.27479248046875,1.6946260070800783
9584,-0.20941452026367188,10.747949523925781,1.0855426025390627
9650,1.5967295837402344,9.979447631835939,1.6899856567382814
9720,1.9660116577148439,7.503147125244141,2.5759931945800782
9784,-0.47990203857421876,10.362351379394532,3.4422418212890626
9850,0.3435356140136719,10.436147918701172,4.106260986328126
9919,-0.24489074707031253,8.585097198486329,7.069498901367188
9984,-0.350870361328125,11.702813873291015,3.514242095947266
10050,-0.3511697387695313,8.018824768066407,3.1579829406738282
10119,-1.320853271484375,7.832462310791016,2.491718444824219
10184,0.8146060180664063,8.851842498779297,2.652035064697266
10250,1.7729132080078125,7.922275543212891,2.5562342834472656
10319,0.512384490966797,7.996371459960938,1.0961705017089844
10384,0.5224136352539063,7.72199203491211,1.73159912109375
10451,2.8460316467285156,11.295061798095704,2.5152195739746097
10522,0.5300477600097656,8.724756774902344,0.7280859375000001
10584,0.28021728515625,10.959609375000001,2.5331822204589844
10650,0.012124786376953125,9.72033645629883,1.6506175231933595
10720,1.077609100341797,8.318052520751953,0.6114784240722656
10784,1.1259585571289064,5.900130615234375,-0.8077203369140625
10851,0.6104306030273438,11.33083740234375,0.9617500305175781
10920,0.15687377929687502,11.437266082763673,2.9361442565917972
10983,0.9229806518554688,9.422306213378906,4.568649444580078
11050,-0.5938151550292969,9.919123077392578,8.095465393066407
11118,-2.9621900939941406,6.470744018554687,7.27846435546875
11184,-1.447489929199219,9.317374420166017,3.1069390869140627
11250,0.047151947021484376,8.270750885009766,4.3788441467285155
11319,-1.9354751586914063,11.402987365722657,5.074896697998047
11384,0.1431024169921875,6.47373779296875,1.7655784606933596
11450,-0.017812957763671877,7.531737670898438,2.8997698974609376
11524,0.7939489746093751,8.060288543701173,2.3331980895996094
11584,0.5818400573730469,9.366023254394532,1.0098001098632814
11650,0.5783972167968751,9.375453643798828,1.8134788513183595
11720,0.7170089721679688,10.374476165771485,2.5976980590820316
11784,0.4399351501464844,8.813821563720703,2.981649627685547
11851,0.050295410156250005,8.627459106445313,3.879781951904297
11920,0.31150222778320313,8.103398895263672,2.5400679016113283
11984,0.7423063659667969,10.221045227050782,3.4956806945800785
12051,0.41164398193359375,9.704319763183594,4.565955047607422
12125,0.12708572387695313,9.21648422241211,3.888014831542969
12184,0.58198974609375,8.417745208740234,2.139051818847656
12251,-0.3126997375488281,8.523126068115236,2.5655149841308593
12320,0.0556842041015625,9.1920849609375,2.4051983642578127
12384,0.6134243774414063,10.636431427001954,2.471959533691406
12450,0.5336402893066406,10.360854492187501,2.5938061523437503
12519,1.001267852783203,10.891650695800783,3.466341705322266
12583,-1.7634828186035156,5.635630645751953,1.1618838500976563
12650,1.0193801879882813,8.497529296875001,6.52927230834961
12719,0.5888754272460938,7.588469696044922,4.046834564208985
12784,1.0461744689941406,7.519762573242188,3.0481114196777344
12850,0.9252259826660156,8.66473159790039,-0.15567626953125
12924,0.054636383056640626,7.512427825927735,0.010328521728515625
12984,0.6391708374023438,8.554111633300781,1.0454260253906251
13051,0.7574249267578126,10.044113159179688,1.354383544921875
13124,0.7840695190429688,9.890233154296876,1.9496955871582031
13184,0.9574090576171875,8.292755126953125,0.908909912109375
13251,-0.30386810302734374,10.116712188720703,-0.06182144165039063
13319,0.008382568359375,10.173743591308595,0.11660751342773439
13384,1.4395564270019532,9.048533477783204,-0.2435435485839844
13450,-0.24399261474609377,10.906320190429689,1.478924560546875
13524,-0.6204597473144532,8.00370620727539,1.0472222900390626
13584,0.7834707641601563,9.830357666015626,1.6169375610351564
13651,-0.6378236389160157,9.36213134765625,2.1409977722167968
13720,0.4149371337890625,10.649304656982423,1.8776953125
13784,-0.010627899169921875,8.333021392822266,0.8779243469238281
13851,0.11795471191406251,8.696166229248048,1.2304412841796875
13919,0.6499484252929688,9.173224182128907,0.7467970275878907
13984,0.36553985595703126,9.777068481445314,2.039508819580078
14051,0.28336074829101565,9.20016815185547,2.2808070373535156
14120,-0.08607101440429688,9.282047882080079,1.731449432373047
14184,0.07694000244140625,11.143127746582032,2.897674255371094
14250,0.27303222656250004,10.092761993408203,2.2528152465820312
14319,-0.31988479614257814,9.246871032714845,2.1878503417968753
14385,-0.27033782958984376,9.651629333496095,1.6329542541503907
14451,0.20088226318359376,8.306975555419923,1.2138258361816407
14520,0.34248779296875004,9.735005950927734,2.0073257446289063
14584,0.05044509887695313,9.12113250732422,1.503922576904297
14650,0.3496728515625,10.27074188232422,2.265389099121094
14720,-0.05822891235351563,10.249037017822266,2.798580322265625
14784,0.41029678344726567,9.695039062500001,1.8483563232421876
14851,-0.1395098876953125,9.81134719848633,2.2305116271972656
14919,0.377215576171875,7.840695190429688,2.027384033203125
14984,-0.11690689086914063,9.728719024658204,3.559897155761719
15051,-0.10837463378906251,9.200916595458985,2.5307872009277346
15119,-0.14115646362304687,10.286459197998047,2.6876609802246096
15184,0.06840774536132813,10.33780242919922,2.046244812011719
15251,0.31105316162109375,10.15533187866211,1.9467018127441407
15318,-0.05942642211914063,9.125772857666016,1.3867163085937502
15384,0.08532257080078126,8.739126892089844,1.7947677612304689
15451,0.2927911376953125,8.608448638916016,1.7299525451660158
15521,-0.42885818481445315,9.43353286743164,2.512225799560547
15584,0.38769378662109377,10.233619079589845,2.844235382080078
15650,-0.24519012451171876,10.553952941894531,3.2313304138183594
15720,-0.501756591796875,10.316696319580078,2.5999433898925783
15783,0.13516891479492188,8.778345336914063,1.7310003662109377
15850,0.026943969726562503,9.877060546875,1.7847386169433594
15920,0.4794529724121094,8.569679260253906,1.2228071594238281
15984,0.6744973754882813,9.86837860107422,1.8815872192382814
16050,0.022303619384765626,9.68306396484375,2.0582199096679688
16120,0.29877868652343753,8.634494476318359,2.100282440185547
16184,-0.23875350952148439,8.88118148803711,1.7612374877929688
16250,0.02245330810546875,9.107959899902344,1.714833984375
16319,0.6261479187011719,8.983867950439453,2.0890557861328127
16384,0.36703674316406254,8.869056701660156,1.4593153381347657
16450,-0.17333953857421877,9.610464935302735,2.0267852783203124
16518,0.6572831726074219,10.224188690185548,2.0070263671875
16584,-0.06271957397460938,9.434580688476563,2.0809725952148437
16651,0.2797682189941406,9.603279876708985,1.6519647216796876
16719,0.3896397399902344,10.24873764038086,2.0851638793945315
16784,0.8744815063476563,9.416618041992187,2.034419403076172
16850,0.09654922485351564,9.406738586425782,2.3902294921875002
16919,1.0089019775390626,9.437424774169923,1.4138099670410158
16984,0.6486012268066407,8.285420379638673,1.4810202026367187
17051,0.6709048461914063,10.193053436279298,2.03337158203125
17121,0.14325210571289063,9.437424774169923,2.202819213867188
17184,0.5834866333007813,9.748028869628907,2.5303381347656253
17250,0.5604345703125,8.500523071289063,2.1011805725097656
17320,0.5974076843261719,10.21805145263672,2.1848565673828126
17383,0.34518218994140626,9.451345825195313,1.936223602294922
17451,0.2989283752441406,10.194849700927735,2.0748353576660157
17520,1.2018507385253907,10.068662109375001,1.5946339416503907
17584,0.3227288818359375,9.05167694091797,1.6622932434082032
17650,0.5146298217773437,10.618169403076173,1.8676661682128908
17721,0.3338058471679688,9.222471771240235,1.569935302734375
17784,0.4339476013183594,9.547595672607422,1.285975799560547
17850,0.659827880859375,9.132359161376954,1.2259506225585939
17919,0.7143145751953125,10.423723754882813,1.7627343750000002
17984,0.15088623046875002,9.080716552734376,1.8317408752441406
18051,0.16585510253906252,8.918154602050782,1.893262939453125
18118,0.3730242919921875,9.458979949951173,0.9571096801757814
18185,0.27033782958984376,8.920699310302735,1.3316308593750001
18251,0.48214736938476566,9.099128265380859,1.1737092590332032
18318,0.3263214111328125,10.644813995361329,2.2945783996582034
18384,0.6001020812988281,9.197174377441407,1.8163229370117189
18450,0.5414241027832032,9.059161376953126,1.5245796203613282
18520,0.6318360900878907,9.375453643798828,1.8163229370117189
18584,0.4818479919433594,10.251881103515625,2.1082159423828126
18650,0.5713618469238282,9.417965240478516,2.0577708435058595
18720,0.49217651367187504,9.50912567138672,1.7790504455566407
18784,0.46059219360351566,9.289382629394531,2.032922515869141
18850,0.47196853637695313,10.055339813232422,1.955383758544922
18919,-0.24938140869140626,10.180928649902345,2.0309765625000002
18984,0.8345146179199219,9.310488739013673,1.6094531250000002
19051,0.3549119567871094,10.572364654541015,1.6149916076660158
19119,0.23501129150390626,8.284073181152344,1.2012519836425781
19184,-0.18291961669921875,9.638456726074219,2.155517578125
19251,0.7461982727050782,9.729916534423829,1.3100756835937502
19321,0.3644920349121094,9.657467193603516,2.9334498596191407
19384,0.9550140380859375,9.219178619384767,1.5328125000000001
19450,0.4981640625,9.240135040283203,1.2235556030273438
19524,0.5668711853027344,10.25203079223633,2.043849792480469
19585,0.8695417785644531,10.52895492553711,2.5006997680664065
19651,0.6041436767578126,9.632319488525392,2.4276516723632815
19719,0.22722747802734375,9.616602172851563,1.2582833862304688
19784,0.7613168334960938,9.893526306152344,1.5426919555664063
19851,0.4796026611328125,9.553583221435547,1.407073974609375
19919,0.35895355224609377,9.014554138183595,1.8567388916015626
19984,0.7180567932128906,8.643326110839844,1.4450949096679688
20051,0.44502456665039064,9.48951644897461,1.9354751586914063
20119,0.1866618347167969,9.488019561767578,2.5602758789062503
20184,0.6364764404296875,9.753118286132812,2.2375469970703126
20250,0.35521133422851564,8.951235809326173,2.1538710021972656
20319,-0.08352630615234376,9.463021545410157,2.540816345214844
20384,0.42691223144531254,10.080038452148438,2.6625132751464844
20450,0.09654922485351564,10.06911117553711,2.032323760986328
20524,-0.08247848510742188,9.262738037109376,1.9047889709472656
20584,0.7810757446289063,8.646170196533204,2.3114932250976565
20651,-0.04415817260742188,8.649163970947265,1.064735870361328
20720,0.6054908752441407,10.041718139648438,0.9219328308105469
20784,0.5923182678222657,10.290949859619142,1.4729370117187501
20851,0.6113287353515625,9.654623107910156,1.5335609436035158
20918,0.33769775390625,10.044861602783204,2.206860809326172
20984,0.0544866943359375,9.510921936035157,1.5417938232421875
21051,0.6580316162109375,9.518106994628907,1.572030944824219
21121,-0.04700225830078125,9.512867889404298,2.142943725585938
21184,0.6822811889648438,10.081535339355469,1.6386424255371095
21251,0.8824150085449219,10.081535339355469,1.1091934204101563
21324,-0.2601589965820313,9.926607513427735,2.4589366149902343
21384,0.3400927734375,9.062454528808594,2.2149440002441407
21451,0.6494993591308594,8.677155761718751,1.6726217651367188
21520,-0.06032455444335938,10.315947875976564,1.9440074157714844
21584,0.2609074401855469,9.986632690429689,2.055675201416016
21651,0.85981201171875,10.171049194335938,2.2579046630859376
21719,0.5192701721191406,8.863817596435547,0.9487271118164063
21784,0.8258326721191407,9.136251068115234,1.5991246032714845
21850,0.9213340759277344,10.183623046875,2.417622528076172
21920,0.30177246093750004,9.458979949951173,2.4325914001464843
21984,0.7102729797363282,8.20009780883789,1.7109420776367188
22051,0.4731660461425781,8.18183578491211,1.8062937927246094
22119,0.5492079162597656,9.421258392333986,2.0471429443359375
22184,1.148411865234375,10.074499969482423,2.2107527160644533
22251,0.48978149414062505,10.33016830444336,2.232008514404297
22319,0.13412109375,10.254425811767579,1.9628681945800783
22384,0.0173638916015625,9.62603256225586,1.948348388671875
22451,-0.016914825439453125,10.404114532470704,2.595003662109375
22519,0.26689498901367187,10.13377670288086,2.5297393798828125
22584,0.010627899169921875,9.187145233154297,1.6783099365234375
22651,0.5204676818847657,9.838590545654297,1.939816131591797
22720,0.43230102539062504,8.48794921875,2.592009887695313
22784,0.5584886169433594,9.296717376708985,2.834355926513672
22850,0.14040802001953126,9.109756164550781,2.494562530517578
22919,0.6357279968261719,9.478589172363282,2.2239253234863283
22984,0.0987945556640625,9.829010467529297,1.952839050292969
23050,0.17797988891601563,9.365723876953126,2.0239411926269533
23120,0.8632548522949219,9.48233139038086,1.154249725341797
23184,0.077838134765625,9.152866516113281,2.6698480224609376
23251,0.5140310668945313,9.903256072998047,3.6506085205078125
23320,0.12723541259765625,9.024283905029296,3.1269973754882816
23384,0.48109954833984375,9.43682601928711,2.459535369873047
23450,0.4589456176757813,9.647288360595704,2.5679100036621096
23519,0.37631744384765625,10.310858459472657,3.5816020202636722
23584,0.44607238769531254,9.66390380859375,2.7297235107421876
23650,0.11960128784179688,8.639434204101564,2.6161097717285156
23719,0.4263134765625,9.539662170410157,3.078348541259766
23784,-0.21510269165039064,9.284592590332032,3.2230975341796877
23851,0.75443115234375,8.835376739501953,2.6741889953613285
23918,-0.10508148193359376,10.570718078613282,2.600841522216797
23984,0.4110452270507813,9.820328521728516,2.3797512817382813
24051,0.3457809448242188,9.560169525146485,2.314636688232422
24119,0.20133132934570314,7.617359619140625,1.9291882324218752
24184,0.2656974792480469,9.303004302978517,1.815125427246094
24251,0.14624588012695314,8.947194213867188,1.7911752319335938
24319,0.21555175781250002,8.652606811523437,1.738484802246094
24384,0.29309051513671874,10.227481842041016,2.1315673828125
24451,0.681233367919922,9.686506805419922,2.5677603149414066
24519,-0.13696517944335937,10.215506744384767,2.5737478637695315
24584,0.28695327758789063,9.974358215332032,2.615061950683594
24651,0.512384490966797,9.772128753662109,2.4638763427734376
24721,0.5134323120117188,10.20607635498047,2.0742366027832033
24784,0.4689747619628907,10.12374755859375,1.7754579162597657
24851,0.3543132019042969,9.283095703125001,1.5488291931152345
24920,0.1407073974609375,9.118438110351564,2.5903633117675784
24984,-0.29593460083007816,10.115514678955078,3.1127769470214846
25051,0.20103195190429687,9.15810562133789,1.148411865234375
25120,-0.3933819580078125,8.621621246337892,0.27078689575195314
25183,0.5721102905273437,11.039992218017579,1.7344432067871094
25250,-0.5453160095214844,11.093131713867187,1.6329542541503907
25319,1.4548246765136719,10.040969696044922,1.0270143127441407
25384,0.39547760009765626,9.643097076416016,3.191064147949219
25451,0.8978329467773438,10.216105499267579,1.9761904907226564
25518,-0.11660751342773439,10.46907943725586,2.857857055664063
25584,1.2195140075683595,9.774224395751954,3.3654515075683595
25651,0.5761518859863282,9.723479919433593,2.319426727294922
25719,0.034727783203125,9.94546829223633,2.2273681640625003
25784,0.4186793518066406,9.587562561035156,1.4558724975585937
25851,1.0210267639160158,8.796158294677735,2.6776318359375
25921,0.40805145263671877,10.155032501220704,3.2540830993652343
25984,0.5399272155761718,9.905202026367188,2.668650512695313
26050,0.5165757751464845,9.403445434570314,2.465223541259766
26120,1.0056088256835938,9.34342025756836,2.239043884277344
26184,0.24339385986328127,10.40830581665039,2.7824139404296875
26250,0.5450166320800781,9.507179718017579,2.5761428833007813
26319,0.8470884704589844,9.985435180664062,2.1008811950683595
26384,0.667012939453125,9.573042755126954,2.173330535888672
26450,0.286204833984375,10.099497985839845,1.9573297119140627
26522,0.5613327026367188,10.162666625976563,1.9690054321289063
26584,0.9830058288574219,9.925110626220704,1.7229171752929688
26651,0.3722758483886719,10.005493469238282,2.1154010009765627
26725,0.49172744750976566,9.958790588378907,2.4544459533691407
26784,0.5007087707519532,10.741213531494141,3.7077896118164064
26851,0.5433700561523438,8.774004364013672,2.4192691040039063
26919,0.53408935546875,8.568182373046875,2.1871018981933594
26984,0.9159452819824219,8.982969818115235,1.9904109191894532
27051,0.17513580322265626,9.652078399658203,1.9535874938964846
27122,0.8924441528320313,10.238409118652344,2.142943725585938
27184,0.9503736877441407,9.706714782714844,1.9621197509765627
27251,0.3986210632324219,9.882149963378907,2.738704833984375
27320,0.5411247253417969,10.011630706787109,2.0613633728027345
27384,0.5703140258789062,9.566606140136718,1.5097604370117188
27451,0.6062393188476562,9.110055541992187,1.7633331298828125
27520,0.6324348449707031,9.39087158203125,2.1974304199218753
27584,0.39622604370117187,9.417965240478516,2.006726989746094
27650,0.6912625122070313,9.696535949707032,2.1890478515625
27719,1.1174263000488283,10.583291931152344,1.2374766540527344
27784,0.7926017761230469,9.518705749511719,1.4772779846191406
27851,0.377215576171875,8.554411010742188,2.4201672363281252
27920,0.6869215393066407,9.113648071289063,2.1180953979492188
27984,1.1181747436523437,9.227411499023438,3.483705596923828
28051,0.9729766845703125,9.752669219970704,2.489622802734375
28121,0.4724176025390625,9.369915161132813,2.485431518554688
28184,0.7629634094238281,9.862540740966798,1.6735198974609375
28251,0.8572673034667969,9.25196044921875,1.9380198669433595
28320,0.2601589965820313,9.347012786865236,2.411634979248047
28384,0.4819976806640625,10.689121856689454,2.3273602294921876
28451,0.32901580810546877,9.748028869628907,2.262994079589844
28520,0.9131011962890625,9.900262298583986,1.496737518310547
28584,0.18755996704101563,9.66480194091797,2.185305633544922
28650,0.48409332275390626,9.47080535888672,1.9404148864746096
28722,0.5878276062011719,9.316925354003907,2.2519171142578127
28784,0.023201751708984378,9.758058013916017,2.0453466796875
28850,0.10597961425781251,9.880952453613281,1.6717236328125
28925,0.6568341064453125,9.28683792114258,1.7221687316894532
28984,0.5941145324707031,9.888885955810547,0.8354127502441406
29051,0.45580215454101564,9.954000549316406,2.066303100585938
29119,0.6520440673828125,9.93543914794922,1.5462844848632813
29184,0.6268963623046875,8.959019622802735,1.6374449157714845
29250,0.19235000610351563,9.097631378173828,1.7419276428222656
29321,0.0496966552734375,9.579928436279298,0.8518785095214845
29384,1.0533595275878906,10.242600402832032,2.1272264099121094
29450,0.26494903564453126,10.294392700195313,2.0209474182128906
29523,0.49591873168945316,10.234068145751953,1.751657409667969
29584,0.3400927734375,10.268646240234375,1.1776011657714844
29651,0.4363426208496094,10.02839584350586,1.4040802001953125
29721,0.2639012145996094,9.268575897216797,1.59747802734375
29784,0.05912704467773438,9.19971908569336,1.1897259521484376
29851,0.31644195556640625,9.03551055908203,1.1801458740234376
29925,0.6923103332519531,9.071435852050781,1.9040405273437502
29984,0.8216413879394532,9.926906890869141,1.3928535461425782
30051,0.290994873046875,9.695338439941407,1.3552816772460938
30119,0.8208929443359375,10.256072387695314,1.0788066101074218
30184,0.38664596557617187,10.151589660644532,1.3274395751953125
30251,0.7117698669433594,10.412048034667968,1.3790821838378906
30324,0.5891748046875,9.549092559814454,1.0425819396972658
30384,0.8581654357910157,10.44423110961914,1.5432907104492188
30451,0.7180567932128906,9.6615087890625,1.336271209716797
30520,0.5932164001464844,9.397757263183594,1.4949412536621094
30584,1.794917449951172,9.970765686035156,1.8506016540527346
30650,1.325643310546875,10.507848815917969,1.9356248474121094
30724,1.7727635192871094,9.396410064697266,0.9000782775878907
30784,1.815125427246094,9.918524322509766,1.8922151184082032
30850,1.673968963623047,9.328900451660157,1.451232147216797
30920,0.26914031982421877,9.813143463134766,2.1878503417968753
30984,0.6285429382324219,8.584049377441406,0.41209304809570313
31051,0.828527069091797,9.155261535644533,1.8413209533691408
31119,0.9312135314941407,8.828341369628907,1.457219696044922
31184,0.8343649291992188,9.408983917236329,1.46335693359375
31251,0.690963134765625,9.465715942382813,1.7856367492675782
31321,0.47136978149414066,8.891959075927735,1.3033396911621093
31384,0.700393524169922,9.759854278564454,1.9339782714843752
31451,0.7622149658203126,8.786727905273438,0.7970924377441406
31523,0.5348377990722657,9.02727767944336,2.365381164550781
31585,0.8614585876464844,9.01440444946289,1.6670832824707031
31650,1.0725196838378908,9.775272216796875,0.8599617004394532
31722,1.3299842834472657,10.267149353027344,1.861828308105469
31784,0.9851014709472656,9.654174041748048,1.2757969665527344
31851,0.8437953186035156,10.781030731201172,1.3247451782226562
31920,1.9252963256835938,10.562185821533204,1.7140855407714846
31983,0.48214736938476566,7.958799591064453,-1.0412347412109375
32051,0.9169931030273438,9.641151123046875,1.6793577575683594
32121,0.7550299072265625,9.745933227539062,2.408042449951172
32185,0.3872447204589844,9.348958740234375,1.4085708618164063
32251,-0.22782623291015627,7.173382873535156,3.230581970214844
32322,-0.3585044860839844,7.307953033447266,3.256777496337891
32384,1.0008187866210938,8.446335754394532,3.742218017578125
32451,1.0289602661132813,12.249177703857422,4.9636779785156255
32520,1.8360818481445313,11.035950622558595,5.492079162597657
32584,0.06032455444335938,7.7053765869140625,0.45744873046875
32651,0.4231700134277344,8.536598052978515,1.8086888122558595
32725,1.2826826477050781,7.8553646850585945,1.3536351013183594
32784,1.565145263671875,10.113419036865235,2.5233027648925783
32851,1.3546829223632812,10.57640625,3.7952078247070316
32921,1.581760711669922,8.929980010986329,3.7744010925292972
32984,0.2758763122558594,9.821825408935547,2.046544189453125
33051,1.6301101684570314,8.444988555908203,-0.7155120849609375
33121,2.4276516723632815,12.691058807373048,2.1977297973632814
33184,-0.324525146484375,10.03318588256836,5.677693176269532
33250,0.49906219482421876,10.591973876953126,8.840166778564454
33320,1.9022442626953127,11.28862518310547,6.37359603881836
33383,0.25192611694335937,9.534123687744142,-2.061812438964844
33450,0.8857081604003907,10.301128692626953,0.3116519165039063
33525,-0.42810974121093753,7.237150268554688,0.3770658874511719
33584,2.568808135986328,10.921588439941408,4.712649993896485
33651,-0.46373565673828127,5.9725799560546875,-2.1772224426269533
33724,1.5953823852539064,1.9540365600585938,-1.015338592529297
33784,-0.054636383056640626,9.85879852294922,0.35820510864257815
33851,1.320703582763672,9.388626251220703,2.12917236328125
33920,-0.1423539733886719,8.154442749023438,1.7573455810546876
33984,-0.16959732055664065,6.677314453125001,2.911894683837891
34051,0.6279441833496094,9.41092987060547,0.9767189025878906
34121,-0.08547225952148438,4.689747619628906,0.15687377929687502
34184,2.1055215454101566,13.547577667236329,2.3839425659179687
34250,1.1274554443359375,12.180919647216797,-1.5259268188476562
34325,1.2012519836425781,10.719808044433595,1.0951226806640626
34383,0.7020401000976563,9.611812133789064,0.5222639465332032
34450,1.3096266174316407,8.989107055664062,2.195933532714844
34519,-0.07768844604492188,8.230035552978515,3.916755065917969
34583,0.5129832458496094,7.905061340332032,4.9988548278808596
34650,0.8403524780273438,8.543334045410157,3.5513648986816406
34720,0.7470964050292969,9.987231445312501,5.058131561279297
34783,0.9072633361816407,9.829459533691407,0.6002517700195312
34850,1.8652711486816407,10.184670867919923,0.41209304809570313
34920,1.2364288330078126,11.565699005126953,3.558699645996094
34983,0.6309379577636719,10.26265869140625,3.6229161071777347
35050,-0.8514294433593751,10.393935699462892,3.646267547607422
35120,1.5744259643554688,10.786718902587891,-0.484991455078125
35183,-0.760418701171875,10.526260528564453,1.3353730773925783
35251,0.7897576904296876,12.801379394531251,1.8739530944824219
35324,0.6342311096191406,12.390633544921876,3.3657508850097657
35384,-0.9147477722167969,10.920839996337891,5.468128967285157
35451,0.7481442260742188,11.26707000732422,7.146438903808594
35524,-0.106578369140625,9.4890673828125,5.069507904052735
35584,1.625170440673828,10.877130889892578,6.953490142822266
35651,-0.5408253479003906,7.56392074584961,6.4586192321777345
35720,-2.276316375732422,7.287146301269532,-0.7863148498535156
35784,2.357896728515625,16.707057495117187,4.192481689453126
35851,-2.0680993652343753,6.928342437744141,2.211800537109375
35925,0.7083270263671876,12.269685058593751,2.418820037841797
35984,-0.8120613098144531,6.298152923583984,1.3177098083496095
36051,-1.3352233886718752,8.83807113647461,2.3261627197265624
36119,0.27273284912109375,7.096592559814454,0.013771362304687501
36184,-0.5649252319335938,9.795779571533204,-0.46373565673828127
36251,-1.7101936340332031,9.179511108398438,0.9924362182617188
36323,0.6291416931152344,10.911409606933594,4.282893676757813
36384,0.13801300048828125,10.081385650634767,3.5607952880859375
36451,-0.14280303955078125,10.097102966308594,2.2170396423339844
36518,-0.4278103637695313,9.632020111083985,4.903054046630859
36584,-1.504072265625,8.004754028320313,1.8302439880371095
36651,-0.3028202819824219,4.938380584716797,2.2276675415039064
36721,0.6249504089355469,7.798482971191406,2.0713925170898437
36784,-0.6527925109863282,9.983189849853517,4.010011138916016
36850,0.12124786376953126,7.959248657226563,4.444856872558594
36920,-1.82021484375,8.848549346923829,4.831652526855469
36984,0.6075865173339844,12.108769683837892,2.9795539855957034
37051,0.28755203247070316,12.675042114257813,4.5497886657714846
37120,-1.2472064208984375,11.191776580810547,5.555846557617188
37184,-1.2892689514160156,9.190737762451173,5.693560180664063
37251,0.34338592529296874,10.630892944335939,6.278394012451172
37325,1.2690609741210939,8.138126678466797,4.5990362548828125
37384,-1.7763560485839844,10.077344055175782,-0.004340972900390625
37451,2.2683828735351566,11.332783355712891,0.013322296142578125
37524,-0.91250244140625,11.955937500000001,-0.092208251953125
37585,-0.026195526123046875,9.018895111083985,3.207529907226563
37651,-2.4113356018066407,7.115004272460938,5.79355224609375
37719,-1.235979766845703,6.438560943603516,1.7907261657714844
37784,-0.9413923645019532,8.775501251220703,2.5905130004882815
37851,1.653461608886719,7.943980407714844,0.8104147338867188
37920,1.069226531982422,10.100096740722657,1.9070343017578126
37984,0.29788055419921877,7.207661590576172,-2.0278330993652345
38051,-0.17573455810546876,10.886710968017578,-0.2029779052734375
38120,-0.32407608032226565,11.308982849121094,3.010240173339844
38183,0.719703369140625,8.485703887939454,3.636537780761719
38250,-2.931204528808594,8.054750061035156,4.937033386230469
38319,-1.178199920654297,11.32080825805664,7.0344717407226565
38383,-1.4389576721191406,8.576415252685548,6.695875854492188
38450,-3.1787896728515626,9.998308410644531,6.5960334777832035
38519,1.0587483215332032,9.350006561279297,4.8403344726562505
38584,-1.6652870178222656,14.9018115234375,13.706547088623047
38651,-2.659519500732422,10.797496490478515,5.827681274414063
38719,-4.36806655883789,7.2795121765136726,3.9219941711425785
38784,-3.859424285888672,12.067605285644532,3.8505926513671875
38851,-3.656895446777344,10.491383056640625,2.565964050292969
38919,0.3085084533691406,7.966583404541016,-0.059725799560546876
38983,-1.7212705993652344,8.456514587402344,-0.7785310363769532
39051,-1.8914666748046876,9.446705474853516,4.411476287841797
39119,-4.725223846435547,11.269165649414063,7.699538726806641
39183,-2.1776715087890626,9.147627410888672,4.587210845947266
39250,-3.0458660888671876,9.595496063232423,5.029840393066406
39319,-1.3081297302246095,6.602919158935547,2.8502229309082034
39384,-3.2706985473632812,10.456804962158204,2.841540985107422
39451,-2.145488433837891,9.574988708496095,3.3380584716796875
39520,-2.2396426391601563,9.66584976196289,3.9869590759277345
39584,-1.6461268615722657,10.12943572998047,3.952830047607422
39651,-3.2457005310058595,9.893975372314454,1.5678396606445313
39720,-1.3609698486328126,11.830648040771486,1.8946101379394533
39784,-2.3775059509277345,9.004075927734375,1.4926959228515626
39851,-0.45340713500976565,8.918903045654297,0.5754034423828125
39919,-3.363505554199219,9.517208862304688,2.0245399475097656
39983,-1.8576370239257813,9.258846130371094,1.918111267089844
40050,-2.9099487304687504,10.278675384521485,2.3670277404785156
40120,-2.508633270263672,10.613229675292969,3.625909881591797
40184,-2.854414215087891,7.979157257080079,0.9199868774414063
40251,-1.1421249389648438,8.328979797363282,1.2846286010742187
40320,-2.4745042419433596,10.420729980468751,3.716022491455078
40384,-2.870430908203125,9.251062316894531,4.249812469482422
40451,-1.9478993225097658,9.709409179687501,3.7471577453613283
40519,-2.434687042236328,10.203831024169922,2.479743347167969
40584,-1.836680603027344,9.556876373291017,3.351680145263672
40651,-2.749332733154297,8.984466705322266,3.2692016601562504
40720,-2.0230430603027343,8.716074829101563,3.464395751953125
40784,-2.4673191833496095,8.85483627319336,2.462229766845703
40851,-1.9619700622558596,9.422306213378906,2.9054580688476563
40919,-2.159110107421875,10.359656982421875,3.412603454589844
40984,-1.7756076049804688,9.74533447265625,3.399879913330078
41051,-2.15312255859375,9.424551544189454,2.229613494873047
41121,-2.6457481384277344,9.730814666748048,2.7693910217285156
41184,-2.698139190673828,9.689949645996094,2.9494665527343753
41251,-2.915786590576172,9.176068267822266,2.2138961791992187
41320,-2.079625396728516,11.588751068115235,0.888402557373047
41384,-1.810485076904297,13.816717987060548,3.516786804199219
41451,-2.8232789611816407,8.53540054321289,1.1924203491210938
41521,-1.8350340270996095,11.189830627441406,3.006797332763672
41584,-2.1116587829589846,9.596394195556641,2.7608587646484377
41650,-2.2040167236328125,10.208770751953125,4.041296081542969
41720,-1.4100677490234377,9.592352600097657,4.129313049316407
41784,-2.0722906494140627,9.735305328369142,4.91263412475586
41851,-2.186054077148438,9.619446258544922,2.5262965393066406
41919,-1.9429595947265625,7.0645591735839846,2.0434007263183593
41984,-2.0901036071777344,8.696016540527344,2.8816575622558593
42051,-2.0432510375976562,9.432335357666016,2.671793975830078
42119,-2.3796015930175782,8.984766082763672,1.4576687622070312
42184,-2.1775218200683595,10.00923568725586,1.06099365234375
42251,-2.0517832946777346,9.824519805908203,1.6813037109375002
42319,-2.0477416992187503,9.604178009033204,1.64058837890625
42384,-1.9473005676269532,10.559790802001954,3.0157786560058595
42451,-1.8079403686523439,10.355914764404297,2.677482147216797
42519,-1.5103591918945314,9.976753234863281,2.5674609375
42584,-1.9224522399902344,9.503736877441407,1.4903009033203125
42651,-1.7774038696289063,9.677226104736329,1.4772779846191406
42721,-1.1692185974121094,8.974437561035156,1.7582437133789064
42784,-1.9202069091796876,9.212143249511719,2.4580384826660158
42851,-2.0520826721191407,9.277108154296876,2.0089723205566408
42921,-1.5775694274902345,9.707912292480469,2.6803262329101565
42984,-2.273921356201172,9.332642669677735,2.2228775024414062
43051,-2.0652552795410157,9.512119445800781,2.4285498046875
43121,-1.9237994384765627,9.571545867919923,2.714604949951172
43184,-1.4281800842285157,9.950557708740234,2.6337730407714846
43251,-1.6516653442382814,10.274334411621094,2.2996678161621094
43320,-1.7904267883300782,10.058333587646485,2.705024871826172
43384,-1.5455360412597656,9.75581268310547,2.994822235107422
43451,-1.9496955871582031,9.661359100341798,2.9533584594726565
43519,-1.6408877563476563,9.969568176269531,2.5797354125976564
43584,-0.7842192077636719,10.504705352783203,3.057541809082031
43651,-2.2909858703613284,11.061697082519531,2.2421873474121097
43719,-2.4298970031738283,9.714498596191406,1.9107765197753908
43784,-2.2607487487792968,10.58448944091797,2.3547532653808596
43851,-3.0289512634277345,9.516011352539063,2.6994863891601564
43919,-1.5060182189941407,8.88836654663086,1.208287353515625
43984,-1.7021104431152345,10.15772689819336,1.0018666076660157
44051,-1.5768209838867189,10.494676208496093,2.4935147094726564
44119,-1.1109896850585939,9.615105285644532,1.8537451171875001
44184,-1.6375946044921876,7.777227172851563,1.1771520996093752
44251,-1.9787351989746094,9.852960662841797,1.4557228088378906
44320,-2.212848358154297,11.315868530273438,1.4497352600097657
44384,-1.1630813598632812,10.738818511962892,1.327738952636719
44451,-2.345472564697266,11.626622314453126,1.576970672607422
44522,-1.931283874511719,10.880873107910157,2.419867858886719
44584,-1.6395405578613282,8.617429962158203,1.000968475341797
44651,-2.1905447387695314,9.422605590820313,2.17707275390625
44720,-2.069147186279297,8.993148651123047,2.2686822509765627
44784,-1.0773097229003907,9.778265991210938,2.403102722167969
44851,-1.8781443786621095,10.700198822021484,2.8463310241699222
44919,-2.0944445800781253,10.245594177246094,2.0683987426757815
44984,-2.2073098754882814,9.506431274414062,2.0510348510742187
45051,-2.092947692871094,9.329349517822266,2.117197265625
45119,-2.2481748962402346,9.06559799194336,2.341880035400391
45184,-1.7320481872558595,9.004375305175781,2.458637237548828
45251,-2.192790069580078,8.65844467163086,1.355431365966797
45318,-1.59029296875,8.68194580078125,1.5753240966796875
45384,-1.3139675903320314,10.724298706054688,3.5952236938476565
45451,-1.7269587707519531,9.891280975341797,3.0232630920410157
45519,-1.2747491455078126,8.912167053222657,2.458637237548828
45584,-2.0050804138183596,9.176068267822266,1.2584330749511718
45651,-1.9332298278808595,9.397158508300782,1.9511924743652345
45719,-1.846410369873047,10.10069549560547,2.1142034912109375
45784,-1.5401472473144533,10.184072113037109,-0.47975234985351567
45851,-2.8202851867675784,10.111323394775392,1.2850776672363282
45920,-1.773212585449219,9.695188751220703,0.6221063232421875
45984,-2.621947631835938,9.995464324951172,1.6826509094238282
46051,-2.6000930786132814,11.551179199218751,1.7104930114746095
46120,-1.7609381103515627,10.39483383178711,1.0280621337890625
46184,-1.5630496215820313,10.941047973632813,1.5367044067382813
46251,-1.5163467407226563,8.710386657714844,0.7565267944335938
46320,-1.9128721618652345,9.683662719726563,2.5394691467285155
46384,-3.197500762939453,9.381590881347657,1.9380198669433595
46450,-3.036735076904297,10.694360961914063,3.0725106811523437
46519,-2.6536816406250003,7.8023748779296875,-1.1804452514648438
46584,-1.2521461486816408,6.897805938720704,2.386636962890625
46651,-2.5333319091796875,11.2039013671875,2.8330087280273437
46721,-2.1884490966796877,9.582024078369141,3.7760476684570317
46784,-2.1312680053710937,10.515033874511719,2.2342538452148437
46851,-0.43125320434570313,10.173444213867189,1.1442205810546875
46922,-0.918489990234375,9.331295471191407,1.6423846435546876
46984,-0.20986358642578126,8.05968978881836,-1.7426760864257813
47051,-3.17340087890625,6.863078155517578,1.1630813598632812
47122,-3.6227664184570316,8.92623779296875,1.671573944091797
47184,-1.4540762329101564,7.075486450195313,-0.4034111022949219
47251,-2.0850141906738284,7.7987823486328125,1.5911911010742188
47319,-2.6779312133789066,8.694220275878907,2.18186279296875
47384,-3.0273046875,13.179642791748048,2.182760925292969
47451,-1.3476475524902345,11.358978881835938,0.9244775390625001
47522,-2.4640260314941407,8.430319061279297,0.6608757019042969
47584,-0.8505313110351563,10.678044891357423,1.7443226623535157
47651,-0.5981561279296875,11.219468994140625,2.1400996398925782
47721,-0.8313711547851563,12.75632308959961,3.001558227539063
47784,-0.8940907287597657,10.309660949707032,3.296894073486328
47851,-1.1323951721191408,7.639812927246094,1.3500425720214844
47922,-1.603465576171875,10.05084915161133,2.326312408447266
47984,-0.7803273010253907,9.030870208740234,-0.045505371093750004
48051,-0.2556683349609375,8.937763824462891,0.9321116638183594
48119,-1.0605445861816407,9.76733871459961,1.6437318420410156
48184,-0.18920654296875,10.961255950927734,3.3623080444335938
48251,-0.3823049926757813,10.552755432128906,1.9389179992675782
48325,0.15537689208984376,10.551108856201173,1.55197265625
48384,0.20462448120117188,10.504405975341797,2.381846923828125
48451,0.6581813049316406,6.736291809082031,2.0743862915039064
48519,0.5891748046875,10.846594390869141,2.8502229309082034
48584,-0.7267387390136719,12.048445129394532,1.0234217834472656
48650,-0.037571868896484374,9.177864532470704,1.8844313049316408
48725,0.5643264770507813,9.033115539550781,1.5581098937988282
48784,1.0241702270507813,9.449998626708984,2.811303863525391
48851,0.4667294311523438,11.73125473022461,2.9126431274414064
48920,0.5816903686523438,11.026969299316407,3.9573207092285156
48984,0.6390211486816406,10.19844223022461,1.4361135864257812
49051,0.5804928588867188,8.748108215332032,1.5371534729003906
49119,1.789977722167969,8.973240051269531,1.595232696533203
49184,0.13906082153320312,10.089468841552735,3.375630340576172
49251,1.4533277893066407,9.320218505859376,2.1348605346679688
49323,0.9202862548828126,10.055639190673828,2.1179457092285157
49384,0.365240478515625,10.048753509521484,3.313060455322266
49451,0.39053787231445314,10.201735382080079,1.6256195068359376
49519,0.12020004272460938,8.77295654296875,2.4924668884277343
49584,0.18456619262695315,10.121502227783203,2.788102111816406
49651,0.9809101867675781,9.26109146118164,2.146985321044922
49720,0.8523275756835937,7.8987744140625,1.8339862060546877
49783,0.5583389282226563,10.316995697021484,4.054468688964844
49851,0.6997947692871094,11.008557586669923,5.004692687988282
49919,1.1012599182128906,7.645052032470703,-1.4582675170898438
49984,-0.38290374755859374,10.211016082763672,2.954256591796875
50051,1.354383544921875,9.69698501586914,2.027234344482422
50119,0.0185614013671875,10.714568939208984,1.1924203491210938
50184,0.8620573425292969,7.675139465332031,0.7225474548339844
50251,0.8631051635742188,9.804910583496094,4.19367919921875
50319,1.6742683410644532,12.845238189697266,8.508157196044923
50384,0.9621990966796875,9.726324005126953,4.02408187866211
50451,1.1202703857421876,8.876840515136719,3.4819093322753907
50520,2.883603515625,11.561358032226563,5.162913665771485
50583,2.2516177368164065,5.648803253173829,-0.40969802856445314
50651,2.0878582763671876,10.640622711181642,1.6040643310546876
50721,0.12528945922851564,9.94412109375,1.0719209289550782
50784,2.891686706542969,11.280541992187501,1.6860937500000002
50851,1.819915466308594,11.527827758789064,3.8977445983886723
50920,0.667012939453125,11.392359466552735,4.2873843383789065
50984,-2.582729187011719,10.578052825927735,2.1706361389160156
51051,4.835694122314453,10.564580841064453,4.744384002685547
51120,-1.0425819396972658,7.0503387451171875,1.8055453491210938
51184,4.855003967285157,4.034111022949219,4.006418609619141
51251,1.4705419921875,4.760999450683594,-4.386927337646485
51319,-0.025297393798828127,7.977959747314453,-3.8609211730957034
51384,4.263434143066407,15.38560546875,-3.866609344482422
51451,-0.987945556640625,9.392817535400392,-4.9636779785156255
51519,-1.5516732788085938,15.417339477539063,3.4685870361328126
51584,1.4063255310058596,10.522218933105469,4.18844009399414
51651,0.6644682312011719,9.908944244384767,4.252506866455079
51719,-1.477577362060547,9.49340835571289,1.0391390991210938
51784,-1.2949571228027343,9.4890673828125,4.541256408691407
51851,0.47331573486328127,12.247381439208985,3.663332061767578
51919,1.6910334777832032,10.858270111083986,1.3525872802734376
51984,0.6665638732910156,13.803844757080078,4.411925354003906
52051,2.2845492553710938,10.137818298339845,2.9292585754394533
52119,1.0229727172851564,10.673554229736329,1.4325210571289064
52184,-1.4001882934570313,10.51458480834961,3.0853839111328125
52251,0.7390132141113281,10.85752166748047,0.6261479187011719
52319,-0.30551467895507817,8.376730499267579,3.5760635375976566
52384,-0.9321116638183594,6.703360290527344,0.5324427795410156
52451,-0.27273284912109375,9.507628784179689,4.424050140380859
52520,-0.9828561401367188,8.93581787109375,2.652334442138672
52584,-0.15837066650390627,8.211174774169923,2.3857388305664062
52651,-0.9524693298339845,9.213041381835938,2.128872985839844
52721,0.3296145629882813,8.636739807128906,1.5250286865234375
52784,0.358055419921875,8.982071685791016,1.7265097045898439
52851,-0.7557783508300782,9.811047821044923,2.9199778747558596
52919,0.23306533813476563,9.36647232055664,1.6311579895019532
52984,-1.0211764526367189,7.703879699707032,2.4804917907714845
53050,0.5466632080078125,9.963580627441408,4.620591430664063
53119,-0.5093907165527344,7.05138656616211,3.5578015136718752
53184,1.4485377502441408,9.821825408935547,6.313121795654297
53250,2.6303302001953126,9.737550659179687,4.533472595214844
53319,0.008232879638671876,6.982230377197266,4.256099395751954
53384,-0.14759307861328125,8.45007797241211,3.835623779296875
53451,1.8726058959960938,10.204429779052735,-0.6613247680664063
53519,-0.3263214111328125,8.274493103027345,1.1774514770507813
53584,-0.8135581970214845,10.411898345947266,3.5943255615234375
53651,3.4118550109863284,7.764353942871094,2.511926422119141
53719,0.33171020507812504,6.149811401367188,-2.053429870605469
53783,-1.6555572509765626,9.788145446777344,1.608105926513672
53851,3.340752868652344,10.709030456542969,0.9048683166503907
53919,-0.7943980407714845,6.574478302001953,-0.43888732910156253
53984,0.8780740356445313,7.284002838134766,1.0746153259277345
54051,0.5667214965820313,8.965755615234375,-1.2889695739746094
54121,-0.21809646606445313,13.154195709228516,0.062120819091796876
54184,-0.16600479125976564,10.454110565185548,0.8443940734863282
54251,-0.6378236389160157,6.915319519042969,3.5560052490234377
54321,2.325414276123047,9.491612091064454,4.888085174560547
54384,-0.027093658447265627,6.321204986572266,1.5392491149902345
54451,0.11181747436523438,11.612102508544922,4.0495289611816405
54519,1.1573931884765625,12.355606384277344,2.605332183837891
54584,0.7611671447753907,11.122171325683594,3.686533813476563
54650,-0.011376342773437501,7.33639389038086,2.7141558837890627
54719,0.49576904296875,7.466772766113282,3.0861323547363284
54784,-0.2782713317871094,9.781858520507813,4.580923919677734
54851,-0.2369572448730469,7.391329650878907,2.242786102294922
54919,1.8673667907714844,9.451046447753907,0.24698638916015625
54984,0.8931925964355469,11.946956176757814,2.9621900939941406
55051,1.8709593200683594,10.774893493652344,0.22438339233398438
55119,0.26914031982421877,10.673853607177735,0.7924520874023437
55184,-0.13546829223632814,7.685767364501953,2.2600003051757813
55251,0.4555027770996094,5.7278388977050785,-2.3929238891601563
55319,0.5833369445800781,9.969119110107423,2.9630882263183596
55384,0.3227288818359375,7.1664971923828125,1.2100836181640626
55450,2.665057983398438,8.934620361328125,2.3451731872558597
55520,1.3777349853515626,10.932366027832032,1.4174024963378906
55584,1.8263520812988283,9.767787780761719,2.7096652221679687
55651,0.7668553161621094,7.2741233825683596,1.610351257324219
55720,0.750838623046875,6.317762145996094,-0.348475341796875
55784,1.041534118652344,12.396321716308595,1.1087443542480468
55851,2.326312408447266,10.562335510253908,2.431693267822266
55920,1.3021421813964844,9.071435852050781,2.7167005920410157
55984,-0.5801934814453126,8.26176956176758,2.425106964111328
56051,1.407073974609375,8.10474609375,1.5382012939453127
56119,1.8673667907714844,9.9968115234375,3.630550231933594
56184,1.8827847290039064,7.678282928466797,2.512225799560547
56250,0.681383056640625,7.512278137207032,2.4071443176269534
56319,2.2876927185058595,9.206305389404298,4.374353485107422
56384,0.81670166015625,8.16507064819336,4.959037628173828
56451,2.405497741699219,10.179581451416016,5.419330444335937
56519,1.8868263244628907,11.043584747314453,5.860014038085938
56584,0.42466690063476564,9.335486755371095,4.7663882446289065
56651,1.0204280090332032,7.892936553955079,5.018314361572266
56722,2.692151641845703,8.729696502685547,1.2645703125
56784,2.970572662353516,11.319910125732422,0.067060546875
56851,2.652184753417969,8.994795227050782,0.3207829284667969
56920,4.720284118652344,12.85885986328125,3.3307237243652343
56984,4.929249572753906,11.213032379150391,5.49177978515625
57051,1.0026150512695313,10.61846878051758,6.658004608154298
57124,1.7048048400878908,6.37314697265625,2.9572503662109377
57185,1.6518150329589845,11.1368408203125,3.514541473388672
57251,2.4385789489746097,8.550070037841797,3.556454315185547
57319,2.371817779541016,7.461982727050781,1.426084442138672
57384,2.9130921936035157,9.737400970458985,2.1402493286132813
57451,2.5438101196289065,9.373956756591797,3.2777339172363282
57519,3.0792466735839845,10.226733398437501,5.332660675048828
57584,4.827012176513672,12.246034240722658,2.1612057495117187
57650,4.731660461425782,13.484259338378907,-0.015417938232421876
57724,2.749183044433594,15.567477264404298,6.042334899902344
57784,3.785178680419922,7.399412841796876,3.126697998046875
57851,2.1736299133300783,8.926537170410157,3.668870544433594
57921,5.408552856445313,10.831475830078126,2.155367889404297
57984,2.3766078186035156,7.441625061035157,1.3464500427246096
58051,1.6408877563476563,6.832691345214844,2.005978546142578
58121,3.224295043945313,10.898087310791016,4.272565155029297
58184,3.210523681640625,10.325977020263672,-1.1820918273925782
58251,2.159409484863281,9.942025451660157,1.20469482421875
58323,2.434537353515625,6.5889981079101565,-0.22049148559570314
58384,3.3584161376953126,10.038125610351562,2.6358686828613282
58451,2.993924102783203,8.841214599609376,3.470083923339844
58521,2.063009948730469,7.975415039062501,2.219883728027344
58584,2.512225799560547,9.13265853881836,2.8288174438476563
58651,2.67523681640625,8.789871368408203,2.5213568115234377
58723,2.997666320800781,9.669292602539063,-0.01047821044921875
58784,2.4836352539062503,10.37133270263672,2.903811492919922
58851,3.277135162353516,9.871522064208985,1.878743133544922
58919,2.9220735168457033,11.229498138427735,5.019661560058594
58985,2.1772224426269533,8.428672485351562,2.6731411743164064
59051,2.182012481689453,8.457412719726562,3.121309204101563
59120,1.8913169860839845,9.723629608154297,2.6435028076171876
59184,3.304079132080078,10.383756866455078,-0.58198974609375
59251,2.7797195434570314,9.495204620361328,2.30640380859375
59321,3.719165954589844,10.840606842041016,1.9943028259277344
59383,2.5128245544433594,10.425370330810548,0.7737409973144531
59451,2.5653652954101562,8.311017150878907,1.2446617126464845
59519,2.53632568359375,9.128616943359376,1.4551240539550783
59584,1.2415182495117187,8.962163085937501,2.5599765014648437
59651,2.6050328063964847,9.77452377319336,1.5120057678222658
59719,2.1763243103027343,8.135581970214844,-0.01466949462890625
59784,3.367247772216797,9.171876983642578,0.7741900634765625
59851,3.7416192626953126,9.530980224609376,4.372407531738282
59919,3.5881883239746095,9.716294860839843,2.784509582519531
59984,2.570754089355469,8.760083312988282,2.6779312133789066
60050,1.9296372985839845,9.698631591796875,0.5249583435058593
60119,2.4700135803222656,9.596094818115235,1.9845730590820314
60183,3.7125796508789066,10.341544647216798,0.9339079284667969
60251,3.411405944824219,9.84547622680664,2.139650573730469
60320,3.044668579101563,11.207493896484376,4.381388854980469
60384,2.9773086547851566,7.433541870117188,0.6372248840332032
60451,2.7939399719238285,9.03161865234375,2.097887420654297
60520,3.5250196838378907,11.625724182128907,1.7688716125488282
60584,2.3930735778808594,9.032666473388673,1.1289523315429688
60651,3.4727783203125,8.480165405273437,0.9897418212890625
60721,3.493884429931641,9.589358825683595,1.4289285278320314
60784,3.1892678833007815,9.995015258789063,2.925366668701172
60851,3.4058674621582035,8.769663391113282,1.7160314941406252
60919,3.2236962890625,11.061397705078125,1.9835252380371096
60984,3.4717304992675784,10.546468505859375,2.704875183105469
61051,3.0963111877441407,9.414372711181642,2.218835906982422
61119,3.0608349609375,10.551857299804688,2.012864227294922
61184,2.9656329345703125,9.410331115722657,0.7976911926269532
61251,2.2409898376464845,10.253677368164062,0.9307644653320313
61320,2.6470953369140626,10.2650537109375,1.0642868041992188
61384,2.5468038940429687,9.852062530517578,1.8935623168945312
61451,2.858306121826172,8.987161102294923,1.8589842224121094
61518,3.706442413330078,8.180638275146485,2.791395263671875
61584,3.5256184387207035,10.38046371459961,1.1680210876464845
61651,4.082460479736328,11.360625457763673,1.0190808105468752
61720,3.8119729614257816,9.887239379882812,1.0265652465820314
61784,3.3956886291503907,9.98812957763672,2.125280456542969
61851,3.7556900024414066,9.65866470336914,1.8308427429199219
61919,3.439098358154297,9.178762664794922,2.1568647766113282
61984,3.42966796875,9.427395629882813,1.9751426696777346
62051,2.642454986572266,9.908046112060548,3.4146990966796875
62120,2.9129425048828126,8.493338012695313,3.2313304138183594
62184,2.9056077575683594,8.32838104248047,1.448837127685547
62251,2.0901036071777344,10.7919580078125,1.0585986328125
62320,2.765050048828125,10.293943634033203,0.909957733154297
62384,2.695295104980469,10.882669372558594,0.8536747741699219
62451,1.8839822387695313,8.829389190673828,2.1510269165039064
62520,3.0817913818359375,8.674311676025392,1.2370275878906252
62584,3.0228140258789065,9.070837097167969,0.8792715454101563
62651,2.3032603454589844,9.826465759277344,1.6066090393066408
62720,2.8948301696777343,10.275382232666017,2.249073028564453
62783,2.652184753417969,9.62992446899414,1.51365234375
62851,2.731669464111328,9.881401519775391,0.8571176147460938
62919,2.844385070800781,10.886860656738282,1.9751426696777346
62984,4.376748504638672,11.011251983642579,3.4527200317382816
63051,2.0851638793945315,9.232650604248047,2.738405456542969
63119,1.657054138183594,10.584938507080079,1.0823991394042969
63184,3.2311807250976563,10.669662322998047,3.037633209228516
63251,0.7860154724121095,10.597362670898438,2.183060302734375
63319,2.501298522949219,10.915900268554688,1.5272740173339845
63384,2.337389373779297,9.26917465209961,0.3595523071289063
63451,2.189945983886719,9.64998275756836,2.1718336486816407
63519,2.548600158691406,9.139244842529298,1.0282118225097656
63584,3.1148725891113282,10.381810913085937,1.43940673828125
63651,2.435585174560547,8.198151855468751,0.7243437194824219
63719,2.4339385986328126,8.811276855468751,0.43768981933593754
63783,2.155517578125,9.44490921020508,1.3172607421875
63851,2.3641836547851565,9.21079605102539,1.5067666625976563
63919,2.466720428466797,9.231453094482422,1.6408877563476563
63984,2.3463706970214844,10.488838348388672,2.362836456298828
64051,2.4180715942382816,10.599757690429689,1.4211447143554687
64120,2.087259521484375,9.536818084716797,1.5679893493652344
64184,2.332599334716797,9.100625152587892,1.2521461486816408
64251,1.4733860778808594,9.813293151855468,1.8444644165039064
64320,2.013013916015625,9.955796813964843,1.3055850219726564
64384,1.5486795043945314,10.224188690185548,2.2999671936035155
64451,1.2759466552734375,9.227411499023438,0.9809101867675781
64524,0.9921368408203125,9.640103302001954,1.6777111816406252
64584,1.5079641723632813,9.953551483154298,2.182611236572266
64650,1.3100756835937502,9.205856323242188,1.5343093872070312
64722,0.8529263305664063,10.005044403076173,1.8112335205078125
64784,1.1690689086914063,10.907218322753907,3.1392718505859376
64851,0.36598892211914064,9.870174865722657,0.6435118103027344
64923,0.37167709350585937,10.145901489257813,2.5935067749023437
64984,0.15672409057617187,9.595496063232423,2.822081451416016
65051,-0.09849517822265626,8.925489349365234,0.9178912353515626
65124,0.20043319702148438,9.324559478759767,1.6613951110839844
65184,0.16974700927734376,8.628357238769532,-0.8786727905273438
65251,-0.7128176879882813,8.79496078491211,0.8758287048339845
65321,1.1994557189941406,10.030042419433594,0.8927435302734376
65384,0.051043853759765626,9.649683380126953,0.6423143005371094
65451,0.3998185729980469,10.2842138671875,1.330433349609375
65522,-0.045954437255859376,9.370513916015625,0.8005352783203126
65584,0.047451324462890625,10.041568450927734,1.6839981079101562
65651,-0.6340814208984376,10.57206527709961,1.4054273986816408
65722,0.1676513671875,9.660311279296875,1.619033203125
65784,-0.42885818481445315,9.713001708984375,1.783092041015625
65851,-0.3603007507324219,9.281898193359375,1.8312918090820314
65921,-0.4171824645996094,8.665330352783204,1.1735595703125001
65984,-0.708776092529297,10.701695709228517,2.3334974670410156
66051,-0.1429527282714844,9.534722442626954,2.0779788208007814
66122,-0.159268798828125,10.892698516845703,2.1875509643554687
66184,-0.86939208984375,9.186696166992188,2.415377197265625
66251,0.3555107116699219,9.538614349365234,0.9240284729003907
66319,0.12139755249023439,10.034233703613282,1.5012281799316407
66384,0.204774169921875,10.474617919921876,2.0612136840820314
66451,0.28755203247070316,10.168354797363282,2.268233184814453
66520,0.5126838684082031,9.75581268310547,1.706451416015625
66584,0.25462051391601564,9.126072235107422,0.9922865295410157
66651,0.2496807861328125,8.709039459228515,2.151925048828125
66724,0.4087998962402344,9.225315856933594,2.209555206298828
66784,0.44996429443359376,10.194400634765625,1.8905685424804688
66851,0.19654129028320313,9.345815277099609,0.5671705627441407
66919,0.32721954345703125,9.590706024169922,1.6498690795898439
66984,0.583187255859375,11.10286148071289,2.142045593261719
67051,0.7532336425781251,9.713750152587892,1.785187683105469
67120,0.5083428955078125,8.239166564941407,1.2509486389160156
67184,0.6224057006835938,9.002279663085938,1.8471588134765626
67251,0.547261962890625,9.132359161376954,0.8725355529785157
67324,0.5786965942382812,9.741292877197266,2.6110203552246096
67385,0.39712417602539063,9.89666976928711,0.23590942382812502
67451,0.7435038757324219,11.339968414306641,1.603315887451172
67524,0.14220428466796875,10.503358154296876,0.5962101745605469
67585,0.6493496704101562,10.937904510498047,0.7225474548339844
67651,0.6712042236328125,9.145382080078125,2.143392791748047
67726,0.4385879516601563,9.32515823364258,0.15702346801757813
67784,1.197360076904297,10.227332153320313,1.4205459594726564
67851,0.4722679138183594,10.544821929931642,1.2531939697265626
67923,0.7827223205566407,9.144034881591798,0.9584568786621094
67984,0.925675048828125,9.457632751464844,1.0111473083496094
68051,0.48109954833984375,10.323132934570314,2.3944207763671876
68122,0.6210585021972657,9.731712799072266,1.753004608154297
68184,0.20522323608398438,10.033036193847657,0.9244775390625001
68251,0.9213340759277344,10.436896362304688,1.4563215637207032
68320,0.12049942016601563,9.940378875732423,2.9089009094238283
68384,0.8735833740234376,9.47035629272461,1.6783099365234375
68451,0.6108796691894531,9.951156463623047,3.2753388977050784
68520,1.4271322631835939,9.838590545654297,2.9403355407714846
68584,0.28186386108398437,9.446855163574218,0.9978250122070313
68651,0.9532177734375,9.48427734375,1.7835411071777345
68722,0.358055419921875,9.640103302001954,2.7725344848632814
68785,0.8964857482910157,10.130034484863282,1.3988410949707033
68851,0.4908293151855469,10.283016357421875,1.2904664611816408
68922,0.8695417785644531,10.058333587646485,1.8977536010742189
68984,0.7634124755859375,8.812474365234376,0.24129821777343752
69050,-0.052690429687500005,8.187224578857423,1.0785072326660157
69119,0.7117698669433594,8.976832580566407,0.9005273437500001
69185,0.1011895751953125,9.595795440673829,1.2702584838867188
69251,0.5595364379882812,9.633067932128906,2.0175045776367186
69319,-0.061372375488281256,9.068741455078126,2.781515808105469
69384,0.7122189331054688,9.100924530029298,1.389111328125
69451,0.5249583435058593,10.585537261962891,3.812571716308594
69524,0.7680528259277344,7.993677062988282,3.5476226806640625
69584,0.6638694763183595,10.075398101806641,1.0383906555175781
69651,0.013172607421875001,8.44962890625,1.2196636962890626
69723,0.05792953491210938,9.625284118652344,0.781824188232422
69784,1.1708651733398439,10.383008422851564,2.4480093383789066
69851,-0.3296145629882813,9.244176635742187,2.6958938598632813
69920,0.43604324340820316,8.065377960205078,1.7860858154296877
69984,0.5156776428222657,8.794811096191406,1.9173628234863282
70051,0.5902226257324219,10.985056457519532,3.014132080078125
70122,-0.17513580322265626,8.523575134277344,3.459306335449219
70184,0.35206787109375004,10.56922119140625,2.8599526977539065
70251,-0.0724493408203125,10.256072387695314,2.7358607482910156
70319,-0.010328521728515625,7.227570190429688,0.46538223266601564
70384,-0.08891510009765625,8.66233657836914,1.2582833862304688
70451,-0.060474243164062504,8.187973022460938,1.9119740295410157
70524,0.3031196594238281,9.834099884033204,2.255958709716797
70584,0.8777746582031251,11.683953094482423,2.576891326904297
70650,0.7521858215332031,11.936927032470704,4.822521514892578
70720,0.99393310546875,12.110715637207031,3.849694519042969
70784,0.16720230102539063,9.393565979003906,2.501897277832031
70850,0.9961784362792969,9.776769104003908,3.2861164855957035
70922,-0.22558090209960938,8.343349914550782,1.7209712219238282
70984,1.311123504638672,10.478958892822266,2.9268635559082035
71051,0.44143203735351566,10.426717529296875,2.7150540161132812
71123,0.6447093200683595,9.657916259765626,2.5273443603515626
71184,0.9599537658691407,8.81651596069336,0.4248165893554688
71251,0.4644841003417969,9.235345001220704,1.5729290771484377
71320,0.18546432495117188,8.596922607421876,1.857187957763672
71384,0.44876678466796877,10.296338653564453,2.0544776916503906
71451,0.6409671020507813,10.01402572631836,1.5510745239257813
71520,-0.11121871948242187,9.30030990600586,2.4685166931152347
71584,1.038240966796875,11.669882354736329,3.1449600219726563
71651,0.13172607421875002,10.548863525390626,3.3943414306640625
71720,1.3452525329589844,11.116632843017578,2.630928955078125
71784,0.8533753967285157,9.479187927246095,2.0507354736328125
71851,1.0816506958007812,9.903555450439454,1.7784516906738281
71925,0.7532336425781251,10.677296447753907,0.9148974609375
71984,0.5442681884765626,10.580747222900392,1.0557545471191407
72051,0.42616378784179687,8.975784759521485,1.3786331176757813
72121,0.001197509765625,8.7801416015625,2.4180715942382816
72184,-0.6096821594238282,7.832911376953126,1.9544856262207033
72251,0.3534150695800781,9.589358825683595,1.6904347229003907
72320,0.17139358520507814,9.447453918457033,2.2314097595214846
72384,-0.7463479614257813,8.883277130126954,1.586700439453125
72450,1.3846206665039062,10.534343719482422,2.744243316650391
72524,0.22887405395507815,8.555009765625,2.335742797851563
72584,1.1032058715820312,11.695628814697265,3.915557556152344
72650,-0.22782623291015627,9.60926742553711,1.8386265563964845
72724,0.11151809692382814,9.931547241210938,1.829645233154297
72784,1.5447875976562502,12.616513824462892,3.484304351806641
72851,-0.013022918701171875,11.357182617187501,0.8969348144531251
72923,0.8333171081542969,11.134595489501955,2.6063800048828125
72984,-0.18441650390625,10.800041198730469,0.9114546203613282
73051,1.0826985168457033,10.780132598876953,3.224744110107422
73125,0.5361849975585937,10.963201904296875,1.6040643310546876
73184,0.7180567932128906,8.648265838623047,1.543739776611328
73251,0.06421646118164062,9.84592529296875,3.310815124511719
73325,-0.1920506286621094,11.205697631835939,3.7309913635253906
73384,-0.17558486938476564,8.366701354980469,1.219214630126953
73451,-0.0772393798828125,10.285860443115235,2.7566674804687503
73524,-0.08038284301757813,9.637857971191407,2.3204745483398437
73584,-0.04326004028320313,8.008196868896485,0.9229806518554688
73651,-0.2549198913574219,8.882229309082032,2.3143373107910157
73721,0.6210585021972657,9.107361145019532,2.079176330566406
73784,-0.3384461975097656,8.423583068847657,2.1415965270996096
73851,0.7301815795898438,9.148675231933595,1.936223602294922
73925,0.4822970581054688,10.34738250732422,2.8991711425781252
73984,0.03906875610351563,8.051606597900392,2.578238525390625
74051,0.42107437133789066,8.682694244384766,2.4011567687988284
74121,0.4255650329589844,8.443791046142579,1.2237052917480469
74184,0.2077679443359375,8.84001708984375,1.5498770141601563
74251,1.5512242126464844,9.444160766601563,1.4169534301757813
74324,0.5743556213378906,10.88102279663086,0.5789959716796875
74384,0.5457650756835938,10.396929473876954,0.4028123474121094
74451,0.5878276062011719,10.225835266113283,1.7066011047363283
74519,0.8321195983886719,13.818514251708985,2.8979736328125
74584,0.43843826293945315,10.53703811645508,2.631677398681641
74651,0.6631210327148438,10.79046112060547,1.3784834289550782
74721,0.03697311401367188,10.527308349609376,1.16158447265625
74785,0.3933819580078125,10.525512084960939,0.6351292419433594
74851,-0.08996292114257813,9.818382568359375,2.7068211364746095
74920,-0.143701171875,8.084089050292969,2.0986358642578127
74985,0.2315684509277344,9.642498321533203,2.0842657470703125
75051,-0.047601013183593756,8.724307708740234,1.9209553527832033
75124,-0.017663269042968752,9.011410675048829,1.9499949645996095
75184,0.14160552978515625,8.98177230834961,1.948198699951172
75251,0.07409591674804687,10.6290966796875,2.4623794555664062
75321,0.5245092773437501,10.300529937744141,1.5497273254394532
75384,0.030087432861328128,9.933044128417968,1.9547850036621095
75451,0.5171745300292969,10.513087921142578,1.0588980102539063
75521,0.8946894836425782,9.682465209960938,1.450034637451172
75584,0.38125717163085937,10.728639678955078,1.9610719299316408
75651,0.18456619262695315,7.981402587890625,2.9226722717285156
75722,0.4830455017089844,9.368567962646486,1.5777191162109376
75783,0.7786807250976563,8.213120727539064,0.6014492797851563
75851,0.5342390441894531,11.344608764648438,3.1533425903320316
75923,0.12693603515625002,9.951755218505859,2.100282440185547
75984,0.3824546813964844,10.224039001464844,2.145638122558594
76051,0.22153930664062502,8.585396575927735,0.039517822265625
76120,-0.46702880859375,10.701546020507813,1.597328338623047
76184,0.5053491210937501,11.003318481445312,1.8706599426269532
76251,0.06975494384765625,10.76606185913086,3.0469139099121096
76323,0.38993911743164067,8.994346160888671,1.1047027587890625
76384,0.30267059326171875,8.377478942871095,0.6477030944824219
76451,0.6414161682128906,9.924062805175781,1.4549743652343752
76525,0.30222152709960937,9.127569122314453,1.4275813293457031
76584,0.9369017028808594,10.23915756225586,1.6929794311523438
76651,0.24069946289062502,11.127560119628907,1.5584092712402344
76722,0.1754351806640625,10.980116729736329,1.3942007446289064
76784,0.8370593261718751,9.190737762451173,0.5703140258789062
76851,-0.69216064453125,9.137598266601563,1.3910572814941407
76920,0.6339317321777344,10.186167755126954,0.55324951171875
76984,0.7164102172851563,10.538834381103516,1.8974542236328127
77051,0.18396743774414062,8.759334869384766,1.7347425842285158
77123,0.0034428405761718754,9.596094818115235,2.235750732421875
77184,0.23531066894531252,9.165590057373047,1.5269746398925783
77251,-0.082628173828125,8.981921997070312,1.5551161193847658
77321,-0.465831298828125,11.109896850585939,1.859732666015625
77384,0.8132588195800782,8.139922943115234,1.469194793701172
77451,0.0149688720703125,9.558073883056641,1.7069004821777345
77520,0.1335223388671875,10.516830139160156,1.5200889587402344
77584,0.35820510864257815,9.241781616210938,2.020049285888672
77651,0.32811767578125,9.76584182739258,2.332449645996094
77721,-0.1143621826171875,9.807305603027345,1.6813037109375002
77784,-0.0676593017578125,8.71502700805664,0.9918374633789063
77851,0.7647596740722656,9.435628509521484,1.1862831115722656
77921,-0.24743545532226563,7.372019805908203,1.5840060424804687
77984,0.31524444580078126,8.943152618408204,0.6436614990234375
78051,0.5668711853027344,9.730664978027344,0.7536827087402345
78122,0.841849365234375,9.143136749267578,1.5488291931152345
78184,0.4938230895996094,10.51697982788086,1.6796571350097658
78251,0.6459068298339844,10.753488006591798,1.3204042053222658
78320,0.28021728515625,9.948312377929687,2.3245161437988284
78384,-0.15567626953125,9.414372711181642,1.9839743041992188
78451,0.1431024169921875,7.658973083496094,1.0255174255371093
78522,0.6806346130371094,9.707163848876954,1.3552816772460938
78584,0.7235952758789063,12.106674041748047,3.184028778076172
78651,0.24084915161132814,10.690469055175782,1.9475999450683594
78721,0.4436773681640625,10.38435562133789,2.192191314697266
78784,0.5525010681152344,9.978848876953126,2.148182830810547
78851,0.29952713012695314,8.945547637939454,0.8024812316894532
78925,0.3291654968261719,10.480006713867189,2.924169158935547
78984,-1.1108399963378908,9.55657699584961,1.990111541748047
79051,0.7167095947265625,11.18324432373047,3.0999037170410157
79120,0.0197589111328125,8.465795288085937,3.261866912841797
79184,0.30566436767578126,8.720565490722656,0.9363029479980469
79251,0.5514532470703125,10.324330444335938,3.177891540527344
79321,0.888402557373047,10.429112548828126,1.7055532836914062
79384,0.4056564331054688,9.801467742919922,2.6994863891601564
79451,1.3440550231933595,8.880133666992188,2.4995022583007813
79522,-0.2561174011230469,9.91253677368164,4.226161651611329
79585,0.2859054565429688,8.35667221069336,1.9598744201660157
79651,0.6218069458007813,9.34102523803711,1.8720071411132813
79723,-0.8704399108886719,9.041797485351562,4.306544494628906
79784,0.06795867919921875,8.578061828613281,3.583547973632813
79851,0.5695655822753907,9.485025787353516,3.625760192871094
79922,-0.0640667724609375,10.978021087646486,3.114573211669922
79984,0.48978149414062505,10.46863037109375,1.9417620849609376
80051,-0.75443115234375,8.994795227050782,2.1165985107421874
80122,0.37018020629882814,8.771160278320313,2.3942710876464846
80184,1.0202783203125,8.997639312744141,1.9199075317382814
80251,0.4056564331054688,10.50695068359375,1.8443147277832033
80320,1.2599299621582032,11.89696014404297,2.4637266540527345
80385,-0.2233355712890625,9.169781341552735,1.4374607849121095
80451,-0.008831634521484376,9.530830535888672,1.5233821105957033
80521,0.5381309509277344,9.50149154663086,1.6880397033691408
80584,0.07379653930664062,9.314979400634765,1.796114959716797
80651,1.0400372314453126,9.833650817871094,2.7238856506347657
80722,0.15163467407226563,11.035202178955078,2.6502388000488284
80784,0.6725514221191407,8.733738098144531,2.1680914306640626
80851,0.8120613098144531,9.417216796875001,1.4654525756835939
80925,0.15058685302734376,11.728710021972656,3.437451782226563
80984,1.0136920166015626,9.077872467041017,0.7237449645996095
81051,0.36793487548828124,8.630901947021485,0.6001020812988281
81122,0.271834716796875,9.365125122070314,1.1823912048339844
81185,0.1686991882324219,9.157207489013672,1.4590159606933595
81251,0.24683670043945313,9.079069976806641,0.4219725036621094
81321,0.24668701171875002,9.129365386962892,0.3686833190917969
81384,0.35356475830078127,11.224857788085938,3.6552488708496096
81451,1.055006103515625,9.062454528808594,3.1497500610351565
81523,0.17932708740234377,8.961863708496095,2.455044708251953
81584,0.750838623046875,9.813742218017579,2.2933808898925783
81651,0.7914042663574219,9.106013946533203,3.0409263610839847
81722,-0.5836363220214844,8.168214111328126,2.1573138427734375
81784,0.9205856323242188,9.751920776367188,4.019740905761719
81851,0.355660400390625,8.469986572265626,1.781595153808594
81921,-0.07140151977539062,10.645562438964845,3.8203555297851564
81985,0.5483097839355469,10.32492919921875,3.699257354736328
82051,-0.24025039672851564,8.866212615966797,3.5345997619628906
82120,0.3031196594238281,8.724008331298828,3.0225146484375003
82185,0.6146218872070313,9.676926727294923,2.9999116516113284
82250,0.425115966796875,10.730885009765625,3.0600865173339846
82319,0.49172744750976566,10.333461456298828,3.3326696777343754
82384,0.47660888671875,8.864566040039064,3.071313171386719
82451,0.1423539733886719,8.611442413330078,2.777773590087891
82521,0.23561004638671876,9.647138671875,2.1595591735839843
82584,0.643062744140625,8.744815063476564,2.674787750244141
82651,0.135318603515625,9.200617218017578,1.5976277160644532
82724,0.43739044189453125,8.599467315673829,2.421065368652344
82785,0.7458988952636719,8.832233276367187,2.5548870849609377
82851,0.7497908020019531,9.987830200195313,3.207829284667969
82922,0.23995101928710938,10.781479797363282,3.6913238525390626
82984,0.9577084350585938,10.550360412597657,3.6646792602539064
83050,0.6948550415039063,8.978179779052734,0.8669970703125001
83123,1.5775694274902345,10.249336395263672,2.1375549316406253
83183,0.4056564331054688,9.348809051513673,2.106269989013672
83250,0.9476792907714844,10.499466247558594,2.3813978576660157
83322,-0.18426681518554688,7.657176818847657,1.2750485229492188
83383,0.5075944519042969,9.984686737060548,2.3575973510742188
83450,0.8276289367675782,10.142159271240235,1.3281880187988282
83521,0.8231382751464844,10.348280639648438,1.2912149047851562
83583,0.08292755126953126,8.928932189941406,1.6964222717285158
83650,0.8487350463867188,9.001082153320313,1.2765454101562501
83723,0.9108558654785157,9.257349243164063,2.2132974243164063
83783,1.4986834716796875,9.790390777587891,0.6590794372558594
83850,1.3967454528808594,9.097332000732422,1.853445739746094
83924,0.3429368591308594,9.779613189697265,2.7189459228515624
83985,0.3483256530761719,9.601782989501954,2.0582199096679688
84050,0.4520599365234375,10.657387847900392,2.611469421386719
84119,0.019908599853515625,10.533146209716797,2.3249652099609377
84183,0.13157638549804687,8.377029876708985,2.452200622558594
84250,0.17678237915039063,9.213789825439454,3.270399169921875
84323,0.5812413024902344,9.344168701171876,0.8493338012695313
84385,0.47256729125976565,9.248218231201172,1.1987072753906252
84450,0.48559020996093755,9.505084075927735,1.8278489685058594
84522,0.5743556213378906,8.342900848388672,1.537303161621094
84583,0.6750961303710938,9.09538604736328,1.8950592041015626
84650,0.5495072937011719,9.159752197265625,1.1490106201171875
84725,0.4942721557617188,9.550439758300781,1.4446458435058593
84784,0.7340734863281251,8.196355590820312,2.1403990173339844
84850,0.228724365234375,9.478439483642578,2.6372158813476565
84920,0.9092092895507813,9.73141342163086,2.6863137817382814
84983,0.21420455932617188,9.974807281494142,1.6985179138183595
85050,0.926722869873047,9.995464324951172,2.1164488220214843
85122,0.7312294006347657,9.552535400390626,2.3336471557617187
85183,0.36823425292968753,9.600435791015625,1.8348843383789064
85250,1.3157638549804689,10.10024642944336,1.7507592773437501
85321,0.4984634399414063,10.312804412841798,1.8019528198242187
85384,0.7057823181152344,9.993817749023439,3.183729400634766
85450,0.4171824645996094,9.71030731201172,3.077151031494141
85522,0.9620494079589844,10.159523162841797,2.7298731994628906
85583,0.9833052062988282,9.000184020996095,2.2113514709472657
85650,0.6420149230957032,9.198521575927735,3.0097911071777346
85722,1.0663824462890625,9.381590881347657,3.034639434814453
85785,0.6098318481445313,9.186696166992188,2.6532325744628906
85850,0.9548643493652345,9.092541961669923,2.182012481689453
85921,0.7319778442382813,9.789642333984375,2.3333477783203125
85984,1.1401789855957032,10.047855377197266,3.1689102172851564
86050,1.1344908142089845,8.521329803466797,3.060984649658203
86125,0.4147874450683594,9.367969207763672,2.694995727539063
86183,1.141077117919922,10.068811798095703,3.234174499511719
86250,0.7813751220703126,10.592872009277345,3.4000296020507816
86321,1.1910731506347656,9.653425598144532,2.495760040283203
86384,0.5324427795410156,9.354048156738282,2.640359344482422
86450,0.8572673034667969,8.923543395996095,1.810485076904297
86525,0.8328680419921876,9.822274475097657,3.2326776123046876
86583,1.3021421813964844,9.018296356201173,2.253414001464844
86650,0.5710624694824219,8.968899078369141,2.9988638305664064
86722,0.6563850402832031,8.779842224121094,2.817740478515625
86785,0.3656895446777344,9.238338775634766,2.954855346679688
86850,0.5129832458496094,8.410859527587892,2.1356089782714847
86921,0.6032455444335938,8.56653579711914,2.5303381347656253
86983,1.1138337707519532,9.272318115234375,3.3832644653320316
87050,0.4363426208496094,10.328970794677735,2.7764263916015626
87119,0.8551716613769532,9.529633026123047,4.261039123535157
87183,0.51492919921875,9.048982543945312,2.8385472106933594
87250,0.08666976928710939,8.762777709960938,2.7065217590332034
87323,0.3227288818359375,9.587412872314454,2.67523681640625
87385,1.153201904296875,9.47514633178711,3.1160700988769534
87450,0.017812957763671877,9.352700958251953,3.074756011962891
87523,0.5816903686523438,8.875343627929688,2.8226802062988283
87583,0.147293701171875,9.625284118652344,2.3201751708984375
87650,0.21689895629882813,8.844657440185546,2.991080017089844
87722,-0.233514404296875,9.026080169677735,3.125350799560547
87783,1.066831512451172,9.690548400878907,3.2597712707519535
87850,0.08352630615234376,10.366991729736329,3.4275723266601563
87925,1.0972183227539063,10.58359130859375,2.525548095703125
87983,0.2082170104980469,9.199569396972656,2.190245361328125
88050,0.4655319213867188,9.339827728271485,2.518662414550781
88120,0.02903961181640625,9.173224182128907,2.105970611572266
88183,1.0690768432617188,8.380323028564453,2.060614929199219
88250,0.7447013854980469,9.993668060302735,2.2945783996582034
88325,0.6393205261230469,7.623945922851563,1.1801458740234376
88383,1.0614427185058595,10.549162902832032,3.2823742675781253
88450,1.1343411254882814,9.712253265380859,3.406915283203125
88521,0.2285746765136719,10.189460906982422,2.0610639953613283
88583,0.51732421875,9.585017852783203,3.169658660888672
88650,1.3808784484863281,10.474468231201172,2.3032603454589844
88720,0.18486557006835938,8.86726043701172,3.0795460510253907
88783,0.8951385498046875,9.370214538574219,3.4224829101562504
88850,0.7722441101074219,9.936187591552734,3.835773468017578
88919,0.8954379272460938,8.643475799560548,4.3294468688964844
88984,1.0240205383300782,8.944350128173829,3.707190856933594
89050,0.8816665649414063,9.44880111694336,4.340374145507813
89120,0.8867559814453125,8.977131958007813,4.882696380615235
89183,0.9193881225585938,8.668324127197266,3.130140838623047
89250,0.4113446044921875,9.770033111572266,3.6456687927246096
89324,2.1312680053710937,11.131901092529297,3.8941520690917972
89383,0.7726931762695313,9.636660461425782,3.157384185791016
89450,0.6762936401367188,9.605225830078126,3.8345759582519534
89521,0.9849517822265625,9.835297393798829,4.27271484375
89583,0.5120851135253907,8.920699310302735,3.4750236511230472
89650,1.0816506958007812,9.639354858398438,3.8492454528808597
89720,0.5352868652343751,9.682165832519532,4.20325927734375
89783,1.0407856750488282,9.926158447265626,4.094734954833984
89850,0.6676116943359376,8.912466430664063,3.7149746704101565
89923,0.8256829833984375,8.854536895751954,3.8550833129882816
89983,1.0591973876953125,9.450896759033204,5.295687561035156
90050,0.8096662902832031,9.927056579589845,4.7133984375
90121,1.2445120239257814,9.206754455566406,4.940625915527344
90185,0.8548722839355469,9.417216796875001,4.813390502929688
90250,0.3879931640625,8.979526977539063,4.860392761230469
90320,0.6234535217285156,8.489146728515625,4.260290679931641
90383,0.5780978393554688,7.995323638916016,4.843477935791016
90450,0.8975335693359375,9.155710601806641,4.135150909423828
90519,1.006956024169922,9.34671340942383,3.7974531555175783
90583,1.1163784790039064,8.644972686767579,4.538412322998047
90650,0.267044677734375,9.283395080566407,4.592300262451172
90724,1.0068063354492187,10.213111724853515,6.128555603027344
90784,0.6795867919921875,7.915389862060548,4.334536285400391
90850,0.7680528259277344,9.976004791259767,5.390889587402344
90918,0.3849993896484375,9.050778808593751,5.274581451416016
90983,0.3673361206054688,8.031398620605469,5.316793670654297
91050,1.2602293395996094,7.93948974609375,4.4316842651367185
91123,0.8454418945312501,10.22718246459961,6.823111267089844
91183,0.8422984313964844,8.758137359619141,4.131109313964844
91250,0.8412506103515626,8.734336853027344,4.741988983154297
91325,0.28695327758789063,10.13946487426758,4.3999502563476565
91383,1.417701873779297,8.87444549560547,5.474415893554688
91450,0.5572911071777344,8.47118408203125,5.156027984619141
91521,0.7182064819335938,7.716603240966797,4.090843048095703
91583,0.5059478759765625,9.805958404541016,4.440216522216797
91650,1.0298583984375,8.55545883178711,5.015021209716797
91721,1.3269905090332033,8.690328369140625,4.567002868652344
91783,-0.0101788330078125,9.078770599365235,5.076692962646485
91850,0.8313711547851563,8.712781677246094,4.550387420654297
91921,1.0877879333496094,8.297395477294922,4.22765853881836
91983,0.31524444580078126,8.985215148925782,5.182373199462891
92050,0.6158193969726563,9.379495239257812,6.212680664062501
92119,0.8312214660644531,9.474397888183594,4.21762939453125
92183,0.6161187744140625,8.086633758544922,3.6280055236816406
92250,0.9666897583007813,8.397686920166016,3.9188507080078128
92320,0.33709899902343754,9.836494903564454,5.116061096191406
92383,0.6036946105957032,10.061327362060547,5.435796203613282
92450,0.7744894409179688,9.069489898681642,3.5857933044433596
92521,0.3387455749511719,9.373956756591797,4.89781494140625
92584,0.8611592102050781,10.028844909667969,4.578678588867188
92650,0.6906637573242188,10.372081146240236,5.781128082275391
92721,0.9867480468750001,8.874295806884765,3.9276823425292973
92784,0.5984555053710938,8.30398178100586,4.769232330322266
92850,0.901724853515625,8.941206665039063,4.693489837646484
92920,0.5168751525878906,9.675729217529298,5.837261352539063
92985,2.0516336059570315,9.365873565673828,4.7907875061035154
93050,0.10298583984375001,7.840695190429688,3.1717543029785156
93119,1.0737171936035157,8.096363525390625,3.991150360107422
93184,0.6548881530761719,8.46115493774414,4.705464935302735
93250,0.8631051635742188,8.47881820678711,4.760999450683594
93320,0.16241226196289063,9.315877532958984,5.065316619873047
93384,0.8496331787109376,8.506211242675782,4.485422515869141
93450,0.5953120422363282,8.885821838378906,4.595294036865234
93519,0.8734336853027345,9.002728729248048,4.3665696716308595
93584,0.3686833190917969,8.605903930664063,3.9567219543457033
93650,1.1401789855957032,9.69264404296875,5.218148803710938
93723,0.7168592834472657,8.685837707519532,5.165608062744141
93784,0.6460565185546875,8.664132843017578,4.426295471191406
93850,0.7711962890625,9.081015930175782,4.666096801757813
93921,1.043031005859375,9.061855773925782,4.546345825195313
93984,0.5441184997558594,9.324110412597657,5.244793395996094
94050,1.332828369140625,8.941805419921875,4.44321029663086
94122,0.6231541442871094,9.430539093017579,5.841901702880859
94184,0.7188052368164063,8.36146224975586,4.827760620117187
94250,0.6767427062988282,8.685089263916016,4.792284393310547
94319,1.2722044372558594,9.236542510986329,4.533023529052735
94385,0.32811767578125,8.454718322753907,4.987628173828125
94450,0.5560935974121094,8.578660583496093,4.463567962646485
94520,0.7954458618164063,8.658294982910157,4.365372161865235
94584,0.48948211669921876,8.17854263305664,4.705914001464844
94650,0.6391708374023438,8.953930206298828,5.033732299804687
94723,0.640518035888672,8.660540313720704,4.387077026367188
94784,0.8675958251953125,9.105714569091797,5.522765350341797
94850,0.5528004455566407,8.782536621093751,5.050198059082032
94925,0.3457809448242188,8.770711212158204,4.874463500976563
94984,0.5194198608398438,9.079219665527344,5.483696594238282
95050,0.43065444946289066,8.823551330566406,4.890330505371094
95124,0.7288343811035156,9.081614685058595,5.272336120605469
95184,0.839454345703125,9.185947723388672,5.787864074707032
95250,0.4248165893554688,9.208550720214845,5.265600128173828
95322,0.7961943054199219,9.149573364257813,5.4390893554687505
95385,0.43963577270507814,9.408983917236329,7.216193847656251
95450,0.43125320434570313,7.943531341552735,6.44978759765625
95521,0.132923583984375,8.27000244140625,5.941295013427735
95584,0.4942721557617188,8.577313385009766,5.538033599853516
95650,0.5911207580566407,8.757239227294923,5.8898020935058595
95720,0.513731689453125,8.81457000732422,5.3702325439453125
95784,0.7256909179687501,8.431815948486328,5.142256622314453
95850,0.7050338745117188,8.610843658447266,5.078788604736328
95921,0.7755372619628906,9.302405548095704,5.050198059082032
95984,0.8411009216308594,9.482630767822267,4.428690490722657
96050,0.6268963623046875,8.878487091064454,4.578229522705079
96123,0.3315605163574219,9.454938354492189,4.981790313720704
96184,0.7372169494628906,9.38174057006836,4.976551208496094
96250,0.7658074951171875,8.94060791015625,5.070106658935547
96321,0.9589059448242188,9.322164459228516,4.743036804199219
96384,0.6988966369628906,8.86875732421875,5.030439147949219
96450,0.4245172119140625,8.644972686767579,5.1272877502441405
96520,0.4728666687011719,9.164841613769532,5.266348571777344
96585,0.9074130249023438,8.924591217041016,4.913681945800781
96650,0.8749305725097657,8.779542846679687,5.0904643249511725
96720,0.6156697082519531,8.948092346191407,5.3350556945800784
96784,0.4805007934570313,8.968749389648439,5.426066436767578
96850,0.6891668701171876,8.989107055664062,5.05109619140625
96921,0.7336244201660157,8.93626693725586,5.021308135986328
96984,0.5351371765136719,9.0196435546875,5.147196350097657
97050,0.5968089294433594,8.788524169921875,5.145400085449219
97125,0.6373745727539063,8.831484832763673,4.381239166259766
97184,0.4860392761230469,9.75970458984375,2.738555145263672
97250,0.3391946411132813,9.6998291015625,1.380579071044922
97319,0.25117767333984375,9.564061431884767,1.3846206665039062
97384,0.5336402893066406,9.049730987548829,1.8856288146972657
97450,0.5117857360839844,8.75903549194336,2.292632446289063
97519,0.32811767578125,9.445058898925781,2.388882293701172
97584,0.37751495361328125,9.856852569580079,2.076631622314453
97650,0.3661386108398438,9.673184509277345,2.318528594970703
97724,0.3543132019042969,9.656718750000001,2.6803262329101565
97784,0.4628375244140625,9.567204895019533,2.288740539550781
97850,0.46792694091796877,9.585167541503907,1.958976287841797
97919,0.4731660461425781,9.538764038085938,2.248623962402344
97984,0.4375401306152344,9.488917694091798,2.286944274902344
98050,0.4439767456054688,9.590256958007814,2.183060302734375
98122,0.32227981567382813,9.533225555419923,2.169588317871094
98185,0.30027557373046876,9.573940887451172,2.386636962890625
98250,0.5842350769042969,9.551188201904298,2.3144869995117188
98322,0.5692662048339844,9.516161041259766,2.1616548156738284
98384,0.42766067504882815,9.615853729248048,2.3200254821777344
98450,0.4351451110839844,9.513316955566406,2.314636688232422
98524,0.37751495361328125,9.508526916503907,2.1704864501953125
98586,0.46882507324218753,9.587562561035156,2.2875430297851564
98650,0.2927911376953125,9.599837036132813,2.356250152587891
98721,0.32257919311523436,9.61405746459961,2.2266197204589844
98784,0.5921685791015625,9.612261199951172,2.309846649169922
98850,0.5450166320800781,9.64758773803711,2.355501708984375
98923,0.46119094848632813,9.536967773437501,2.0865110778808593
98986,0.41882904052734377,9.415420532226562,2.1439915466308594
99051,0.4550537109375,9.469458160400391,2.2960752868652343
99119,0.35775604248046877,9.654024353027344,2.289638671875
99184,0.3147953796386719,9.524393920898438,2.163600769042969
99250,0.33126113891601566,9.598040771484376,2.3372396850585937
99325,0.5433700561523438,9.663754119873047,2.224823455810547
99384,0.49876281738281253,9.505682830810548,2.098935241699219
99451,0.42840911865234377,9.67827392578125,2.308649139404297
99521,0.4159849548339844,9.614207153320313,2.293081512451172
99584,0.48618896484375,9.463919677734376,2.1287232971191408
99651,0.44023452758789067,9.598489837646484,2.2700294494628905
99721,0.3864962768554688,9.62558349609375,2.291734313964844
99785,0.5155279541015625,9.646539916992188,2.218835906982422
99851,0.5800437927246094,9.681267700195313,2.3412812805175784
99923,0.5354365539550782,9.54699691772461,2.291734313964844
99984,0.41388931274414065,9.616302795410157,2.2149440002441407
100051,0.39008880615234376,9.480086059570313,2.2168899536132813
100123,0.42571472167968755,9.50912567138672,2.3414309692382815
100184,0.4343966674804688,9.562714233398438,2.222129058837891
100251,0.32332763671875003,9.50194061279297,2.1903950500488283
100319,0.29758117675781254,9.641151123046875,2.346071319580078
100385,0.5007087707519532,9.532327423095703,2.298769683837891
100451,0.4954696655273438,9.43682601928711,2.058519287109375
100519,0.37751495361328125,9.670939178466798,2.2806573486328126
100584,0.45699966430664063,9.537117462158204,2.345472564697266
100651,0.552052001953125,9.418414306640626,2.1154010009765627
100720,0.4507127380371094,9.555828552246094,2.229314117431641
100784,0.3728746032714844,9.59010726928711,2.2866448974609375
100851,0.4343966674804688,9.655670928955079,2.275418243408203
100924,0.31748977661132816,9.617350616455079,2.316133575439453
100984,0.5990542602539063,9.524393920898438,2.232457580566406
101051,0.43484573364257817,9.598040771484376,2.115700378417969
101119,0.3909869384765625,9.515262908935547,2.1977297973632814
101184,0.42571472167968755,9.5178076171875,2.3101460266113283
101251,0.5165757751464845,9.605525207519532,2.2305116271972656
101321,0.44457550048828126,9.534273376464844,2.107467498779297
101384,0.2962339782714844,9.6231884765625,2.3245161437988284
101451,0.5014572143554688,9.683812408447267,2.3067031860351563
101521,0.5842350769042969,9.625284118652344,2.156415710449219
101584,0.38634658813476563,9.657766571044922,2.2637425231933594
101651,0.408350830078125,9.62169158935547,2.264490966796875
101720,0.4201762390136719,9.482930145263673,2.108665008544922
101784,0.45610153198242187,9.585466918945313,2.2864952087402344
101851,0.37018020629882814,9.645941162109375,2.285597076416016
101919,0.29713211059570316,9.666598205566407,2.219135284423828
101984,0.5776487731933594,9.637408905029297,2.3101460266113283
102051,0.5586383056640625,9.528884582519531,2.312391357421875
102120,0.5084925842285156,9.503587188720704,2.112706604003906
102184,0.41149429321289066,9.502389678955078,2.1348605346679688
102251,0.4375401306152344,9.519304504394531,2.2710772705078126
102319,0.5465135192871095,9.45838119506836,2.162403259277344
102384,0.2824626159667969,9.531429290771484,2.173031158447266
102451,0.2986289978027344,9.64609085083008,2.318528594970703
102520,0.571212158203125,9.639205169677735,2.246378631591797
102584,0.51971923828125,9.506730651855468,2.1118084716796877
102651,0.3848497009277344,9.672286376953126,2.271975402832031
102721,0.3932322692871094,9.60687240600586,2.246228942871094
102784,0.5316943359375,9.455387420654297,2.132914581298828
102851,0.4549040222167969,9.572743377685548,2.249821472167969
102920,0.32257919311523436,9.629774780273438,2.282303924560547
102985,0.3050656127929688,9.647887115478516,2.271825714111328
103051,0.6164181518554688,9.59968734741211,2.305954742431641
103121,0.51971923828125,9.564809875488281,2.308798828125
103184,0.4712200927734375,9.609716491699219,2.2531146240234374
103251,0.44921585083007814,9.447902984619141,2.122735748291016
103321,0.458646240234375,9.51735855102539,2.2974224853515626
103384,0.5074447631835938,9.532926177978515,2.3281086730957035
103451,0.3266207885742188,9.602830810546875,2.212698669433594
103524,0.2662962341308594,9.662556610107423,2.334844665527344
103584,0.6132746887207031,9.557624816894531,2.2852976989746097
103651,0.4590953063964844,9.587113494873048,2.1372555541992186
103722,0.41987686157226567,9.610165557861329,2.222727813720703
103784,0.3890409851074219,9.553583221435547,2.3008653259277345
103851,0.5346881103515625,9.520951080322266,2.2231768798828124
103920,0.3288661193847656,9.512867889404298,2.1318667602539065
103985,0.2436932373046875,9.629176025390626,2.3334974670410156
104051,0.47720764160156254,9.533973999023438,2.3117926025390627
104123,0.6060896301269532,9.608518981933594,2.2998175048828124
104184,0.39248382568359375,9.644144897460938,2.2950274658203127
104251,0.38589752197265625,9.605076141357422,2.2971231079101564
104320,0.42242156982421875,9.485325164794922,2.1448896789550784
104384,0.46074188232421875,9.579629058837892,2.2544618225097657
104450,0.34338592529296874,9.646390228271486,2.288441162109375
104519,0.5231620788574219,9.62124252319336,2.254910888671875
104584,0.6192622375488281,9.589508514404297,2.2552102661132816
104650,0.5212161254882812,9.600735168457032,2.2986199951171877
104723,0.48514114379882817,9.522747344970703,2.1209394836425783
104784,0.4324507141113281,9.469907226562501,2.14354248046875
104851,0.4608915710449219,9.488618316650392,2.2483245849609377
104921,0.532891845703125,9.487869873046876,2.152224426269531
104984,0.3124003601074219,9.571545867919923,2.1906944274902345
105051,0.3603007507324219,9.673184509277345,2.368973693847656
105119,0.6062393188476562,9.605824584960938,2.268233184814453
105183,0.48559020996093755,9.498497772216798,2.09564208984375
105251,0.3740721130371094,9.655371551513673,2.262245635986328
105319,0.40475830078125,9.581724700927735,2.296674041748047
105384,0.5309458923339844,9.483229522705079,2.1606069946289064
105451,0.4249662780761719,9.588460693359375,2.205962677001953
105523,0.30491592407226564,9.633367309570312,2.282154235839844
105584,0.58198974609375,9.605225830078126,2.2731729125976563
105651,0.6146218872070313,9.585915985107423,2.259102172851563
105722,0.49247589111328127,9.576635284423828,2.2974224853515626
105784,0.45460464477539064,9.57573715209961,2.252066802978516
105851,0.468226318359375,9.45209426879883,2.1113594055175784
105925,0.417930908203125,9.576635284423828,2.278561706542969
105984,0.5074447631835938,9.504635009765625,2.292632446289063
106051,0.3047662353515625,9.59340042114258,2.1844075012207034
106122,0.41284149169921874,9.68021987915039,2.3441253662109376
106184,0.6228547668457032,9.563013610839844,2.2902374267578125
106251,0.44697052001953125,9.556876373291017,2.128872985839844
106320,0.3549119567871094,9.63172073364258,2.1894969177246093
106385,0.3838018798828125,9.56900115966797,2.2903871154785156
106451,0.5180726623535157,9.528585205078125,2.205363922119141
106520,0.33440460205078126,9.526788940429688,2.149380340576172
106585,0.26105712890625,9.62034439086914,2.3575973510742188
106651,0.4704716491699219,9.639354858398438,2.330054626464844
106723,0.6012995910644532,9.575886840820313,2.2781126403808596
106784,0.36643798828125,9.626331939697266,2.278711395263672
106851,0.3757186889648438,9.590706024169922,2.3046075439453126
106925,0.43260040283203127,9.469308471679687,2.1549188232421876
106984,0.456251220703125,9.601932678222656,2.249971160888672
107051,0.30716125488281254,9.642198944091797,2.319277038574219
107119,0.5432203674316407,9.626781005859376,2.2662872314453124
107184,0.6189628601074219,9.559271392822266,2.2441333007812503
107251,0.469423828125,9.59160415649414,2.322270812988281
107324,0.41628433227539063,9.577533416748047,2.1418959045410157
107384,0.4902305603027344,9.451794891357423,2.1523741149902347
107451,0.4543052673339844,9.543554077148437,2.2782623291015627
107520,0.39951919555664067,9.565258941650391,2.235601043701172
107584,0.46613067626953125,9.623787231445313,2.2528152465820312
107651,0.5430706787109375,9.665999450683595,2.35909423828125
107720,0.5773493957519532,9.582772521972657,2.3429278564453124
107783,0.42346939086914065,9.596843261718751,2.1824615478515628
107851,0.40954833984375,9.551337890625,2.171983337402344
107923,0.4240681457519532,9.509275360107422,2.295177154541016
107984,0.4508624267578125,9.59055633544922,2.232307891845703
108051,0.3119512939453125,9.554780731201172,2.2149440002441407
108124,0.26689498901367187,9.623787231445313,2.358794860839844
108184,0.6017486572265626,9.5465478515625,2.3245161437988284
108251,0.5637277221679687,9.459578704833985,2.1480331420898438
108319,0.3864962768554688,9.644593963623047,2.3311024475097657
108384,0.38395156860351565,9.499994659423828,2.3248155212402346
108451,0.5174739074707031,9.433383178710939,2.14354248046875
108521,0.4776567077636719,9.54415283203125,2.2216799926757815
108583,0.37272491455078127,9.64998275756836,2.3559507751464843
108651,0.5066963195800781,9.630672912597657,2.289339294433594
108722,0.3381468200683594,9.623487854003907,2.3260130310058593
108784,0.5463638305664062,9.560768280029297,2.289638671875
108851,0.415535888671875,9.612859954833985,2.2179377746582034
108921,0.4255650329589844,9.478738861083984,2.174677734375
108984,0.42616378784179687,9.468709716796875,2.319277038574219
109051,0.3733236694335938,9.599088592529297,2.2843995666503907
109123,0.4447251892089844,9.57723403930664,2.2168899536132813
109184,0.32063323974609376,9.616302795410157,2.3472688293457034
109251,0.5583389282226563,9.62453567504883,2.311044158935547
109320,0.6366261291503906,9.534872131347656,2.1285736083984377
109385,0.3742218017578125,9.670490112304687,2.241588592529297
109451,0.40490798950195317,9.608968048095704,2.2698797607421874
109519,0.5219645690917969,9.476343841552735,2.132465515136719
109585,0.4082011413574219,9.572294311523438,2.1838087463378906
109651,0.27033782958984376,9.653425598144532,2.3444247436523438
109721,0.3629951477050781,9.62453567504883,2.2468276977539063
109785,0.6113287353515625,9.485624542236328,2.1954844665527347
109851,0.44337799072265627,9.588011627197266,2.3210733032226565
109923,0.4282594299316406,9.589508514404297,2.1641995239257814
109984,0.49636779785156254,9.433083801269532,2.144739990234375
110051,0.47720764160156254,9.508975982666016,2.2625450134277343
110122,0.44262954711914065,9.560169525146485,2.2134471130371094
110184,0.41209304809570313,9.65147964477539,2.2495220947265624
110251,0.5501060485839844,9.680818634033203,2.3117926025390627
110324,0.5870791625976562,9.548044738769532,2.2972727966308595
110384,0.4182302856445313,9.625882873535156,2.1917422485351565
110451,0.38634658813476563,9.534273376464844,2.1682411193847657
110517,0.41463775634765626,9.509724426269532,2.2170396423339844
110584,0.4351451110839844,9.58337127685547,2.202519836425781
110651,0.3189866638183594,9.581275634765625,2.185455322265625
110718,0.28021728515625,9.62124252319336,2.358645172119141
110784,0.5330415344238282,9.525591430664063,2.2873933410644534
110851,0.5269042968750001,9.53502182006836,2.125430145263672
110917,0.37556900024414064,9.662107543945313,2.2483245849609377
110984,0.3722758483886719,9.49625244140625,2.2649400329589846
111051,0.5282514953613282,9.491612091064454,2.1549188232421876
111117,0.4240681457519532,9.564061431884767,2.1797671508789063
111184,0.2751278686523438,9.643995208740234,2.348316650390625
111250,0.5906716918945313,9.564061431884767,2.272723846435547
111317,0.6069877624511719,9.487271118164063,2.1523741149902347
111384,0.4520599365234375,9.613458709716797,2.292782135009766
111451,0.38664596557617187,9.571545867919923,2.2939796447753906
111517,0.5014572143554688,9.423354034423829,2.0610639953613283
111584,0.5014572143554688,9.534123687744142,2.2269190979003906
111651,0.4463717651367188,9.655820617675781,2.295326843261719
111717,0.42047561645507814,9.653425598144532,2.1966819763183594
111784,0.5511538696289062,9.6615087890625,2.318528594970703
111851,0.5816903686523438,9.650132446289064,2.3237677001953125
111917,0.41388931274414065,9.613608398437501,2.1448896789550784
111984,0.40430923461914064,9.579778747558594,2.165846099853516
112051,0.41852966308593753,9.498946838378906,2.215991821289063
112117,0.4340972900390625,9.591155090332032,2.2101539611816405
112184,0.35700759887695316,9.573940887451172,2.1236338806152344
112251,0.3028202819824219,9.621990966796876,2.3303540039062502
112317,0.58198974609375,9.551487579345704,2.2793101501464843
112384,0.5194198608398438,9.533375244140625,2.149679718017578
112451,0.36000137329101567,9.636211395263672,2.3008653259277345
112517,0.43125320434570313,9.46601531982422,2.296374664306641
112583,0.5397775268554688,9.492809600830078,2.1438418579101564
112651,0.4248165893554688,9.586065673828125,2.2243743896484376
112717,0.30177246093750004,9.619446258544922,2.3379881286621096
112784,0.5734574890136719,9.609566802978517,2.288441162109375
112851,0.6197113037109375,9.516011352539063,2.1342617797851564
112917,0.4692741394042969,9.617799682617187,2.1653970336914066
112984,0.34084121704101566,9.482780456542969,2.2177880859375003
113051,0.5505551147460938,9.46077621459961,2.1764739990234374
113117,0.4471202087402344,9.491163024902344,2.1906944274902345
113184,0.2621049499511719,9.580078125,2.3415806579589846
113251,0.4581971740722656,9.671238555908204,2.2444326782226565
113317,0.6206094360351563,9.664652252197266,2.305056610107422
113384,0.38455032348632817,9.639504547119142,2.3056553649902347
113451,0.3733236694335938,9.582173767089845,2.223476257324219
113519,0.40655456542968754,9.484427032470704,2.1317170715332034
113584,0.45744873046875,9.617051239013673,2.2174887084960937
113651,0.3237767028808594,9.61405746459961,2.2770648193359375
113718,0.3644920349121094,9.614356842041015,2.1954844665527347
113784,0.4237687683105469,9.686955871582033,2.2074595642089845
113851,0.4604425048828125,9.566606140136718,2.348316650390625
113917,0.4381388854980469,9.570348358154297,2.135908355712891
113984,0.37497024536132817,9.550290069580079,2.1727317810058593
114051,0.4891827392578125,9.49475555419922,2.26329345703125
114117,0.42646316528320316,9.552834777832032,2.276016998291016
114184,0.29533584594726564,9.518106994628907,2.1794677734375
114251,0.5623805236816406,9.655670928955079,2.3245161437988284
114317,0.602197723388672,9.547595672607422,2.3104454040527345
114384,0.5358856201171875,9.482181701660156,2.115700378417969
114450,0.3638932800292969,9.498048706054687,2.1643492126464845
114517,0.4219725036621094,9.512418823242188,2.3034100341796875
114584,0.5376818847656251,9.47185317993164,2.133663024902344
114651,0.4613406372070313,9.586065673828125,2.155517578125
114717,0.32108230590820314,9.645342407226563,2.3207739257812503
114784,0.5408253479003906,9.652228088378907,2.258653106689453
114851,0.5890251159667969,9.600286102294922,2.1154010009765627
114917,0.37437149047851564,9.647887115478516,2.2670356750488283
114984,0.40670425415039063,9.618099060058594,2.2177880859375003
115051,0.4302053833007813,9.452243957519531,2.0998333740234374
115117,0.4808001708984375,9.578581237792969,2.2143452453613284
115184,0.31883697509765624,9.643097076416016,2.292333068847656
115251,0.2893482971191406,9.579928436279298,2.1579125976562503
115317,0.3791615295410156,9.567653961181641,2.2314097595214846
115384,0.5382806396484375,9.570498046875,2.325114898681641
115451,0.47900390625,9.55328384399414,2.132914581298828
115517,0.36479141235351564,9.475894775390625,2.125879211425781
115584,0.44846740722656253,9.498946838378906,2.266736297607422
115651,0.5117857360839844,9.487720184326172,2.210303649902344
115717,0.3926335144042969,9.558822326660156,2.212998046875
115784,0.4206253051757813,9.676627349853517,2.3306533813476564
115851,0.6110293579101563,9.583221588134766,2.311942291259766
115917,0.6162684631347657,9.496402130126954,2.189197540283203
115984,0.4393363952636719,9.558822326660156,2.196083221435547
116051,0.4029620361328125,9.566606140136718,2.283202056884766
116117,0.5718109130859376,9.429940338134767,2.401905212402344
116184,0.3650907897949219,9.342971191406251,2.319277038574219
116251,0.31284942626953127,9.476343841552735,2.2866448974609375
116317,0.4620890808105469,9.749376068115234,2.299368438720703
116384,0.5441184997558594,9.881251831054689,2.1579125976562503
116451,0.3974235534667969,9.52589080810547,2.2532643127441405
116516,0.4884342956542969,9.3166259765625,1.9850221252441407
116583,0.5824388122558594,9.701775054931641,2.4333398437500002
116651,0.6069877624511719,9.469607849121095,2.344873809814453
116717,0.5885760498046876,9.616153106689454,2.0625608825683597
116784,0.3192860412597656,9.415570220947266,1.6037649536132814
116851,0.3603007507324219,9.095984802246095,1.0648855590820312
116917,0.3610491943359375,9.767488403320312,1.586550750732422
116984,0.4686753845214844,10.228080596923828,1.8362315368652344
117051,0.144898681640625,10.804082794189453,2.375410308837891
117117,0.5968089294433594,8.862769775390625,0.092208251953125
117184,0.035326538085937505,9.710906066894532,1.127904510498047
117251,0.2621049499511719,10.626402282714844,0.6842271423339844
117317,0.42421783447265626,9.152118072509767,0.5195695495605469
117384,0.30222152709960937,10.443482666015626,1.1787986755371094
117451,0.1359173583984375,11.038195953369142,0.04700225830078125
117517,0.47615982055664063,8.956774291992188,0.26420059204101565
117584,0.40505767822265626,9.759554901123048,0.9653425598144532
117651,0.4667294311523438,10.513087921142578,1.0503657531738282
117717,0.046403503417968756,9.288484497070312,0.00987945556640625
117784,0.03188369750976563,9.694739685058595,0.42810974121093753
117851,0.3106040954589844,10.470127258300781,0.9274713134765625
117917,0.5960604858398438,9.088650054931641,-0.06855743408203126
117984,0.10283615112304688,10.010283508300782,0.5896238708496094
118051,0.02604583740234375,11.0697802734375,1.1678713989257814
118117,0.00089813232421875,10.665321350097656,-0.06721023559570313
118184,0.3043171691894531,9.16139877319336,0.2770738220214844
118251,0.2585124206542969,9.506431274414062,0.49576904296875
118316,0.24504043579101564,11.930640106201173,1.1091934204101563
118384,0.6840774536132813,12.335548095703126,1.4467414855957033
118451,0.3406915283203125,10.490035858154297,0.93645263671875
118517,-0.09864486694335937,9.052275695800782,0.0061372375488281256
118584,-0.15283218383789063,8.750802612304687,-0.47900390625
118651,0.35206787109375004,10.941946105957031,0.40850051879882815
118717,0.3944297790527344,9.934840393066407,-0.7581733703613281
118784,0.1023870849609375,9.8722705078125,-0.3180885314941406
118851,0.5435197448730469,10.372979278564454,-0.48648834228515625
118917,-0.16121475219726564,10.35022659301758,-0.5117857360839844
118984,0.47601013183593754,10.448721771240235,-0.027991790771484375
119051,0.06421646118164062,10.106982421875001,-1.3918057250976563
119117,0.29219238281250004,10.509345703125,-1.003213806152344
119184,-0.25956024169921876,9.925559692382812,-1.644031219482422
119251,-0.07349716186523438,10.361004180908203,1.0147398376464845
119318,-0.35281631469726565,9.825417938232423,0.9083111572265625
119384,0.6765930175781251,9.690847778320313,0.738713836669922
119451,0.46837600708007815,9.356892242431641,1.392703857421875
119517,-0.12005035400390626,9.085955657958985,0.4345463562011719
119584,-0.1071771240234375,9.073681182861328,0.0209564208984375
119651,0.41508682250976564,10.139165496826172,0.008232879638671876
119716,0.11017089843750001,8.759185180664064,-0.113763427734375
119784,0.1932481384277344,10.30861312866211,-0.7334747314453125
119851,0.641865234375,11.104807434082032,-0.28680358886718754
119917,0.6134243774414063,10.200986938476563,0.08352630615234376
119984,0.2866539001464844,9.823471984863282,0.48214736938476566
120051,0.164058837890625,10.579400024414063,0.4195774841308594
120117,0.6122268676757813,9.634714508056641,0.7967930603027344
120183,0.07469467163085938,10.293644256591797,0.8834628295898438
120251,0.5792953491210938,9.656119995117187,0.8798703002929688
120317,0.2213896179199219,9.360784149169922,0.7952961730957032
120384,0.1742376708984375,10.002200317382814,1.5718812561035158
120451,0.17408798217773438,9.585466918945313,1.2865745544433593
120517,0.21420455932617188,9.260941772460939,1.4180012512207032
120584,0.38889129638671877,9.796827392578125,1.2335847473144532
120651,0.15133529663085937,9.513616333007812,1.901346130371094
120718,0.025297393798828127,9.436526641845704,2.0851638793945315
120784,0.19728973388671875,9.22516616821289,2.780767364501953
120851,0.24938140869140626,8.943152618408204,2.0381616210937503
120917,0.05912704467773438,9.692943420410156,2.3333477783203125
120984,0.21031265258789064,9.669891357421875,2.4638763427734376
121051,0.36823425292968753,10.267299041748048,2.0938458251953125
121117,0.17154327392578125,9.69548812866211,1.783092041015625
121184,0.42047561645507814,9.978699188232422,2.931204528808594
121251,0.40386016845703127,9.564061431884767,2.4831861877441406
121316,0.050295410156250005,9.867181091308595,2.8921357727050783
121384,0.5291496276855469,9.37171142578125,2.5703050231933595
121451,0.2751278686523438,8.473878479003906,2.757715301513672
121517,-0.19579284667968752,9.56136703491211,2.7925927734375002
121584,0.23231689453125,8.494535522460938,2.528541870117188
121651,0.4164340209960938,9.00138153076172,1.5283218383789063
121717,0.6493496704101562,10.159672851562501,1.3977932739257812
121784,0.013172607421875001,11.026819610595703,0.5203179931640626
121850,0.13127700805664064,8.900491333007812,1.0856922912597657
121917,0.21195922851562501,9.192234649658204,1.7022601318359376
121984,-0.13576766967773438,9.70417007446289,1.6119978332519531
122051,-0.3251239013671875,8.845405883789063,0.07200027465820313
122117,-0.12214599609375,9.020841064453126,-0.027093658447265627
122184,0.03338058471679688,9.551337890625,0.007634124755859375
122251,0.2549198913574219,11.233390045166017,0.9734257507324219
122317,0.2171983337402344,10.515333251953125,0.7137158203125
122384,0.1407073974609375,9.862091674804688,-0.014519805908203126
122451,-0.0622705078125,9.671687622070314,-0.456251220703125
122517,0.41209304809570313,10.884016571044922,0.0568817138671875
122584,0.20507354736328126,10.364896087646486,0.31210098266601566
122651,0.49756530761718754,10.963650970458986,0.5739065551757813
122717,-0.14579681396484376,9.507030029296876,0.017663269042968752
122784,-0.04655319213867188,8.479416961669923,-0.5288502502441407
122851,-0.4409829711914063,8.107290802001954,-0.6125262451171876
122917,0.13307327270507813,11.023975524902344,1.154249725341797
122984,0.0461041259765625,11.045081634521486,1.0818003845214845
123051,-0.0940045166015625,10.439740447998048,0.42840911865234377
123117,0.3011737060546875,10.21999740600586,0.6709048461914063
123184,0.32138168334960937,11.145672454833985,0.8815168762207032
123251,0.18995498657226564,10.701246643066407,0.1633103942871094
123317,-0.7574249267578126,10.160421295166016,-0.06795867919921875
123384,0.17678237915039063,11.847562866210938,1.5920892333984376
123450,-0.8141569519042969,8.360863494873048,-1.0696755981445314
123517,-0.4182302856445313,9.650132446289064,-1.1138337707519532
123584,-0.3219804382324219,10.916199645996095,0.40161483764648437
123651,0.0401165771484375,10.634635162353517,0.20013381958007814
123717,0.8893006896972657,8.681047668457031,1.0460247802734375
123784,0.1143621826171875,10.72100555419922,0.6972500610351563
123851,0.908909912109375,10.607092437744141,0.16031661987304688
123917,0.820144500732422,10.972632293701173,0.34203872680664066
123984,0.015417938232421876,10.259365539550782,1.2355307006835938
124051,0.611927490234375,9.000333709716797,0.4164340209960938
124117,-0.12049942016601563,9.916877746582031,1.3766871643066407
124184,0.20402572631835938,9.57813217163086,0.4923262023925781
124251,0.6453080749511719,9.811197509765625,0.6027964782714844
124317,0.21270767211914063,10.355765075683594,1.055006103515625
124384,0.43828857421875,9.572294311523438,0.8616082763671875
124451,0.4263134765625,9.823471984863282,0.6500981140136719
124517,0.11660751342773439,10.213860168457032,1.063089294433594
124584,0.4623884582519531,9.859996032714845,0.335302734375
124651,0.27991790771484376,10.068961486816407,0.948427734375
124717,0.049846343994140625,9.794731750488282,0.9220825195312501
124784,0.0461041259765625,8.908873901367189,-0.2547702026367188
124851,0.229921875,11.174562377929687,0.8211923217773438
124917,0.5034031677246094,11.010952606201172,0.6996450805664063
124984,-0.15103591918945314,11.416010284423828,0.5078938293457032
125051,-0.06840774536132813,10.52700897216797,1.1127859497070314
125117,0.36853363037109377,10.387499084472656,1.2754975891113283
125184,0.11271560668945313,10.094707946777344,0.7932005310058594
125251,0.25357269287109374,10.812914428710938,0.8701405334472657
125317,0.2656974792480469,9.996961212158203,1.3850697326660157
125384,0.13980926513671876,9.837692413330078,0.9586065673828126
125451,0.5200186157226563,9.663305053710937,1.0782078552246095
125517,0.4972659301757813,9.252259826660156,0.7937992858886719
125584,0.3718267822265625,9.393116912841798,0.4752616882324219
125651,0.18232086181640625,10.008038177490235,1.191372528076172
125717,0.06945556640625,10.555449829101564,2.056124267578125
125784,0.15552658081054688,10.349478149414063,0.9406439208984375
125851,0.2805166625976563,9.552685089111328,0.5941145324707031
125917,-0.06990463256835938,9.445807342529298,1.4317726135253908
125984,-0.25626708984375,9.57334213256836,1.4163546752929688
126051,0.5460644531250001,9.624835052490235,1.6986676025390626
126117,0.3704795837402344,9.857151947021485,2.275118865966797
126184,0.4846920776367188,10.168953552246094,1.9812799072265626
126251,0.5318440246582031,10.046508178710939,2.202819213867188
126317,0.5595364379882812,10.08632537841797,2.8325596618652344
126384,0.18127304077148437,9.91867401123047,2.452050933837891
126451,0.04056564331054688,9.516909484863282,2.751428375244141
126517,0.39038818359375,9.908944244384767,2.3568489074707033
126584,0.7002438354492188,10.540031890869141,2.5259971618652344
126651,0.2513273620605469,8.992549896240234,1.340911560058594
126717,0.48993118286132814,9.347611541748048,1.7410295104980469
126784,0.4358935546875,9.557924194335937,2.0854632568359377
126851,0.45699966430664063,9.801617431640626,1.9175125122070313
126917,0.6167175292968751,10.664872283935548,1.7871336364746095
126984,0.26689498901367187,9.920170898437501,2.30161376953125
127051,0.267044677734375,10.641969909667969,2.220033416748047
127117,0.5492079162597656,9.742340698242188,1.2864248657226562
127184,0.39592666625976564,10.059830474853516,2.11001220703125
127251,0.32647109985351563,9.039701843261719,1.5871495056152345
127317,0.44023452758789067,9.374705200195313,1.2412188720703126
127384,0.5499563598632813,9.196425933837892,0.02065704345703125
127451,-0.007035369873046876,10.778935089111329,0.7369175720214844
127517,-0.0149688720703125,9.797875213623048,1.2386741638183594
127584,0.6557862854003906,10.430459747314453,1.6693286132812502
127651,0.5225633239746094,9.968220977783204,1.2972024536132813
127717,0.3459306335449219,9.550739135742187,0.3806584167480469
127784,1.0491682434082032,9.055718536376954,0.27572662353515626
127851,-0.16196319580078125,11.274853820800782,1.349294128417969
127917,0.07050338745117188,8.830137634277344,0.699345703125
127984,0.0017962646484375,10.22763153076172,0.5971083068847657
128051,-0.18815872192382813,9.010362854003906,1.4971865844726564
128117,-0.147293701171875,9.371561737060548,1.3118719482421877
128184,-0.2800675964355469,8.119864654541017,0.6824308776855469
128251,0.14998809814453126,7.951315155029297,0.7487429809570313
128318,0.9837542724609375,9.300609283447265,1.628463592529297
128383,-0.37751495361328125,9.09673324584961,1.6780105590820313
128451,0.5218148803710938,8.620723114013673,0.5902226257324219
128517,0.020207977294921877,10.921289062500001,1.0786569213867188
128584,0.28695327758789063,9.227261810302736,1.581760711669922
128651,0.22243743896484375,11.207344207763672,2.436632995605469
128717,0.2625540161132813,10.546618194580079,1.6825012207031251
