relative_time,AccX,AccY,AccZ
0,0.6261479187011719,9.616751861572267,2.771935729980469
8,0.6261479187011719,9.616751861572267,2.771935729980469
71,0.23800506591796877,9.97136444091797,3.167413330078125
138,0.17109420776367187,9.795779571533204,3.122955780029297
204,0.38095779418945314,9.60492645263672,2.824775848388672
271,0.398770751953125,9.99097366333008,2.8589048767089844
338,0.13037887573242188,9.863588562011719,2.348316650390625
404,0.5565426635742188,9.647737426757812,2.625091094970703
471,0.3065625,9.995913391113282,2.781964874267578
538,0.19160156250000002,9.902208251953125,2.3035597229003906
604,0.5170248413085938,9.654174041748048,2.777923278808594
671,0.34099090576171875,9.918973388671876,2.9379405212402343
738,0.20058288574218752,9.536967773437501,2.299368438720703
804,0.47990203857421876,9.93214599609375,2.758014678955078
871,0.31644195556640625,9.97810043334961,2.822081451416016
938,0.2130070495605469,8.734785919189454,1.8112335205078125
1004,0.8524772644042969,9.350156250000001,2.3031106567382813
1071,0.021405487060546877,9.791887664794922,2.5836273193359376
1138,0.7312294006347657,9.141939239501953,2.4075933837890626
1204,0.2508782958984375,10.035880279541017,2.9395870971679687
1271,0.4140390014648438,8.897796936035157,2.132465515136719
1338,0.09505233764648438,10.248887329101564,3.2557296752929688
1404,0.4044589233398438,10.392289123535157,3.3533267211914066
1471,0.5153782653808594,8.484506378173828,2.0399578857421874
1538,0.5730084228515625,8.424780578613282,2.057172088623047
1604,0.38934036254882814,9.50388656616211,2.5402175903320314
1671,0.3251239013671875,10.261610870361329,2.4755520629882812
1738,0.3902384948730469,9.862540740966798,2.9466224670410157
1804,0.5607339477539063,9.462871856689453,2.492766265869141
1871,0.25761428833007816,8.80738494873047,2.932551727294922
1938,0.5553451538085937,9.787696380615236,3.5760635375976566
2004,0.5860313415527344,8.622968444824219,3.5884877014160157
2071,-0.09894424438476564,8.290809173583984,3.7544924926757814
2138,0.6345304870605469,7.918982391357423,4.197870483398438
2204,0.49531997680664064,10.377320251464845,4.4827281188964845
2271,0.20133132934570314,9.379495239257812,4.088897094726563
2338,0.5453160095214844,8.762478332519532,3.8049375915527346
2404,0.05792953491210938,9.649384002685547,3.90627685546875
2471,0.24339385986328127,8.582851867675782,3.086880798339844
2538,0.32721954345703125,10.342293090820313,2.6303302001953126
2604,0.3882925415039063,9.336384887695313,2.2661375427246093
2671,0.4340972900390625,9.918823699951172,2.5800347900390626
2738,0.7934999084472657,9.460925903320312,2.0627105712890628
2804,0.35595977783203125,9.272318115234375,2.365381164550781
2871,0.5980064392089844,9.500892791748047,2.2516177368164065
2938,0.4977149963378906,10.35561538696289,2.706072692871094
3004,0.5352868652343751,9.369615783691406,1.7205221557617187
3071,0.17962646484375,9.642049255371095,1.8925144958496094
3138,0.17678237915039063,10.563832397460938,2.615061950683594
3204,0.32811767578125,10.166857910156251,2.6375152587890627
3271,0.48529083251953126,9.574988708496095,2.1044737243652345
3338,0.5198689270019532,9.15181869506836,1.7321978759765626
3404,0.7960446166992188,9.57768310546875,1.7089961242675782
3471,-0.21106109619140626,10.17928207397461,1.9005976867675782
3538,-0.1454974365234375,9.801617431640626,1.4706916809082031
3604,-0.04296066284179688,10.297835540771485,1.090781707763672
3671,0.16540603637695314,9.996512145996094,1.244062957763672
3738,0.5739065551757813,10.610385589599609,1.600920867919922
3804,-0.0016465759277343752,9.420360260009765,0.7020401000976563
3871,0.7646099853515625,10.118508453369142,1.2376263427734375
3938,-0.22378463745117189,10.50021469116211,1.3980926513671876
4004,0.62031005859375,9.13699951171875,1.1286529541015626
4071,-0.19624191284179687,9.38653060913086,1.8613792419433595
4138,0.7566764831542969,9.541608123779298,2.654879150390625
4204,-0.2650987243652344,10.534792785644532,3.4670901489257813
4271,0.09145980834960937,9.738448791503906,2.861599273681641
4338,0.20103195190429687,9.803862762451173,2.887046356201172
4404,0.14100677490234376,8.76337646484375,1.8247055053710939
4471,0.12528945922851564,10.121651916503907,2.073787536621094
4538,-0.48214736938476566,9.083261260986328,1.5362553405761719
4603,0.6463558959960938,10.282118225097657,2.9678782653808593
4671,-0.2281256103515625,10.15099090576172,2.7934909057617188
4738,0.4034111022949219,10.072853393554688,2.830613708496094
4804,-0.2734812927246094,8.99180145263672,1.3482463073730468
4871,0.4090992736816406,9.490564270019531,1.670226745605469
4941,-0.4213737487792969,11.92001220703125,3.210373992919922
5004,0.03278182983398438,7.901319122314454,0.5078938293457032
5071,-0.4812492370605469,7.898624725341797,1.0919792175292968
5138,-0.5516029357910156,8.027506713867188,2.5471032714843753
5204,-0.4692741394042969,12.227772216796875,2.698737945556641
5271,-0.5219645690917969,11.252550201416016,2.4043002319335938
5338,-0.3703298950195313,8.55066879272461,0.6069877624511719
5404,-0.4912783813476563,9.455537109375001,0.9713301086425782
5471,-0.4002676391601563,9.611063690185548,0.7461982727050782
5538,-0.7126679992675782,10.52176986694336,1.4819183349609375
5604,-0.5733078002929688,10.550210723876953,1.631906433105469
5671,-0.9623487854003907,10.041119384765626,1.014290771484375
5738,-0.5117857360839844,9.348359985351562,0.3311114501953125
5804,-0.6891668701171876,11.386671295166016,0.12663665771484375
5871,-1.5676899719238282,11.321407012939453,1.7115408325195314
5938,-1.0593470764160158,9.548344116210938,0.43125320434570313
6004,-1.3156141662597658,10.910810852050782,0.25192611694335937
6071,-0.5921685791015625,10.791508941650392,1.3055850219726564
6138,-0.8252339172363282,9.287736053466798,0.46538223266601564
6204,0.20193008422851563,8.789571990966797,1.1639794921875
6271,-0.008831634521484376,10.185269622802736,1.1749067687988282
6338,0.27303222656250004,9.143436126708984,0.5980064392089844
6404,-0.3303630065917969,10.460098114013672,1.080004119873047
6471,0.46253814697265627,10.882220306396485,-0.3974235534667969
6538,0.6427633666992187,9.790390777587891,0.9898915100097657
6604,0.0688568115234375,11.72017776489258,1.9357745361328127
6671,0.178428955078125,10.399474182128907,1.0439291381835938
6738,0.2173480224609375,9.39371566772461,1.0852432250976562
6804,1.6109500122070313,9.05272476196289,0.9225315856933595
6871,1.1639794921875,8.999884643554688,1.1575428771972658
6938,2.057172088623047,9.917476501464844,0.566422119140625
7004,1.5831079101562502,10.350675659179688,0.5014572143554688
7071,1.3850697326660157,11.909683685302735,1.1133847045898437
7138,1.4117143249511719,12.059222717285158,-0.7685018920898438
7204,1.3121713256835938,10.971285095214844,0.69216064453125
7271,1.61663818359375,9.82392105102539,0.6077362060546875
7338,1.167422332763672,10.271041259765626,0.9551637268066406
7404,1.5241305541992187,10.738668823242188,1.1874806213378908
7471,1.406924285888672,9.646240539550782,0.3541635131835938
7538,1.6661851501464844,10.41878402709961,-0.5261558532714844
7604,0.7934999084472657,10.207872619628906,-0.7032376098632813
7670,1.3618679809570313,11.097622375488282,0.14115646362304687
7738,0.2568658447265625,10.64241897583008,0.17184265136718752
7804,0.5607339477539063,9.969717864990235,-0.45415557861328126
7871,0.8574169921875,11.465257873535156,0.47496231079101564
7938,2.259401550292969,11.426338806152344,0.8458909606933595
8004,2.4527993774414063,10.890902252197266,0.5755531311035157
8071,2.7463389587402345,11.879296875000001,1.19990478515625
8138,2.2194346618652343,9.521250457763673,1.0484197998046876
8204,2.19623291015625,11.69053939819336,2.084714813232422
8271,1.736239471435547,8.533005523681641,1.229692840576172
8338,1.3497431945800782,10.439141693115236,1.563648376464844
8404,1.047970733642578,10.277178497314454,1.2927117919921876
8471,1.0422825622558594,9.232051849365234,1.0271640014648438
8538,1.4419514465332033,9.540111236572265,0.9982740783691407
8604,1.4974859619140626,10.641670532226563,0.9289682006835938
8671,0.9934840393066406,9.728419647216798,1.6420852661132814
8738,1.155596923828125,9.405840454101563,1.9354751586914063
8804,0.9351054382324219,8.990753631591797,1.938618621826172
8871,1.2232562255859376,9.689350891113282,2.199675750732422
8938,1.1632310485839845,9.316925354003907,1.9802320861816407
9004,0.809366912841797,9.451944580078125,2.5201593017578126
9071,0.9098080444335938,9.391919403076173,3.2777339172363282
9138,0.9057664489746095,9.63321762084961,2.791095886230469
9204,1.0732681274414062,10.65349594116211,3.1196626281738284
9271,1.5461347961425782,8.266409912109376,3.383114776611328
9338,1.3904585266113283,10.763367462158204,3.4226325988769535
9404,0.9846524047851563,9.886041870117188,2.711311798095703
9471,0.9725276184082031,8.588689727783203,2.6720933532714843
9538,0.7177574157714844,8.596772918701172,2.3537054443359375
9604,0.999770965576172,8.300988006591798,1.6554075622558595
9671,0.8861572265625001,10.733429718017579,2.1245320129394534
9738,0.5001100158691406,11.957733764648438,1.1220666503906251
9804,0.1898052978515625,8.192313995361328,1.6054115295410156
9871,0.3703298950195313,9.201665039062501,1.584155731201172
9941,0.21899459838867188,9.341174926757812,1.2205618286132813
10004,0.0640667724609375,9.54609878540039,1.3046868896484376
10071,0.32721954345703125,9.848919067382813,0.6899153137207031
10138,0.3694317626953125,10.445877685546876,0.1734892272949219
10204,0.494571533203125,10.988050231933594,0.8631051635742188
10271,-0.08382568359375,8.741671600341798,-0.47451324462890626
10338,0.6834786987304687,11.376492462158204,0.8062234497070313
10404,0.8113128662109376,10.590476989746094,0.9960287475585938
10471,0.23785537719726563,9.967771911621094,0.779429168701172
10538,-0.0034428405761718754,8.739725646972657,-0.19070343017578126
10603,0.20642074584960937,9.323212280273438,-0.3043171691894531
10671,0.5075944519042969,10.143057403564454,0.2989283752441406
10738,0.49172744750976566,9.643396453857422,0.4260140991210938
10804,0.23680755615234375,9.747130737304689,0.5195695495605469
10871,0.09205856323242188,8.45531707763672,-0.056133270263671875
10938,-0.08517288208007813,9.674082641601563,0.44607238769531254
11004,0.26958938598632814,10.107281799316407,0.6471043395996094
11071,0.31329849243164065,10.03228775024414,0.5189707946777344
11138,-0.06152206420898438,9.280550994873048,-0.03936813354492188
11204,0.04146377563476563,9.608818359375,1.3461506652832032
11271,0.47900390625,11.220965881347658,1.1702664184570313
11338,0.6650669860839844,10.585986328125001,1.1810440063476564
11404,0.6008505249023438,11.47783172607422,1.6666342163085939
11471,0.2540217590332031,7.459587707519532,0.290994873046875
11538,0.27198440551757813,7.0187544250488285,0.13217514038085937
11604,0.15238311767578125,9.565408630371094,0.7726931762695313
11671,0.305364990234375,8.360115051269531,0.2962339782714844
11738,0.5587879943847657,8.688382415771486,0.3887416076660156
11804,0.5192701721191406,11.946507110595704,1.9016455078125
11871,0.4064048767089844,10.610385589599609,1.319356384277344
11938,0.8428971862792969,10.389145660400391,1.3816268920898438
12004,0.15432907104492188,9.308692474365236,0.8623567199707032
12071,0.47990203857421876,10.153685302734376,0.10493179321289063
12138,-0.23396347045898438,10.16251693725586,0.415535888671875
12204,0.8644523620605469,8.700507202148438,-0.000149688720703125
12271,-0.02784210205078125,9.322164459228516,0.5307962036132813
12338,-0.29069549560546876,9.866282958984376,1.826202392578125
12403,0.8551716613769532,9.588610382080079,1.807042236328125
12471,-0.113763427734375,9.575437774658203,1.4959890747070312
12538,0.5182223510742188,10.187514953613281,1.253792724609375
12603,0.19549346923828126,10.079290008544922,0.621357879638672
12671,0.5087919616699219,9.74817855834961,0.8440946960449219
12738,0.45655059814453125,10.029144287109375,1.3958473205566406
12804,0.5066963195800781,9.842183074951173,1.1768527221679688
12871,0.32168106079101566,10.991343383789063,1.1323951721191408
12938,0.3553610229492188,10.034084014892578,0.6734495544433594
13004,0.3909869384765625,8.702602844238282,0.9030720520019532
13071,0.4981640625,8.749904479980469,1.1409274291992189
13138,0.5421725463867187,9.190288696289063,1.5293696594238282
13204,0.48379394531250003,9.595346374511719,1.2160711669921875
13270,1.0237211608886718,9.082063751220703,0.4770579528808594
13338,0.9024732971191407,9.588161315917969,1.6290623474121095
13404,0.5716612243652344,9.829309844970703,1.9423608398437502
13471,0.42346939086914065,9.831854553222657,2.216440887451172
13537,0.5897735595703125,9.669741668701173,2.0996836853027343
13603,0.7322772216796876,10.009834442138672,0.7369175720214844
13671,0.12888198852539062,11.23114471435547,1.2870236206054688
13738,0.5414241027832032,11.023077392578125,0.7824229431152344
13804,0.6276448059082032,10.327623596191406,1.2220587158203127
13871,0.41463775634765626,10.280920715332032,2.812800750732422
13937,0.6634204101562501,8.78298568725586,2.2106030273437502
14004,0.7789801025390626,8.577762451171875,2.0005897521972655
14070,0.6655160522460938,9.893526306152344,1.7546511840820314
14138,1.2650193786621093,9.48517547607422,1.4379098510742188
14204,0.5786965942382812,9.462123413085939,1.1813433837890626
14271,0.5454656982421875,9.170529785156251,1.8556910705566407
14338,0.7283853149414062,9.966873779296876,1.967508544921875
14404,0.6005511474609375,9.721983032226563,2.801723785400391
14471,-0.15612533569335937,10.242600402832032,3.7125796508789066
14538,1.1165281677246095,9.420659637451172,3.8074822998046876
14603,0.6117778015136719,9.644893341064453,3.373983764648438
14671,0.8294252014160156,10.135722656250001,3.1868728637695316
14738,0.4950205993652344,8.687933349609375,2.183209991455078
14804,0.6231541442871094,9.132508850097656,3.662882995605469
14871,0.3387455749511719,7.762258300781251,0.9056167602539062
14941,0.43379791259765627,10.064171447753907,2.4147784423828127
15004,1.730251922607422,10.098899230957032,2.83809814453125
15071,-0.046253814697265624,11.461365966796876,3.7949084472656254
15137,0.29728179931640625,9.874216461181641,2.1550685119628907
15204,0.9105564880371094,9.521699523925781,2.8337571716308596
15271,0.39008880615234376,8.46923812866211,3.2850686645507814
15337,0.22438339233398438,9.232201538085938,2.259401550292969
15404,0.8903485107421876,10.692115631103515,2.1679417419433595
15471,0.6417155456542969,13.268707580566407,4.036506042480469
15537,0.8765771484375,8.157137145996094,2.0553758239746096
15604,0.6376739501953125,15.032789154052734,3.8417610168457035
15671,1.6371455383300781,11.909683685302735,2.5700056457519533
15737,0.8544232177734375,11.961475982666016,4.54859115600586
15804,0.9723779296875,10.46279251098633,2.4002586364746095
15871,0.15702346801757813,11.222911834716797,3.244952087402344
15938,0.24548950195312502,12.709769897460939,2.3867866516113283
16004,-0.06810836791992188,10.133177947998048,0.4037104797363281
16071,0.5261558532714844,8.747210083007813,0.5553451538085937
16137,0.5469625854492188,9.13415542602539,1.5127542114257813
16204,0.6782395935058594,8.778045959472657,0.9422904968261719
16270,0.7515870666503907,11.193722534179688,1.3774356079101564
16337,0.2571652221679688,10.17643798828125,0.83107177734375
16404,0.11825408935546876,11.279943237304687,0.9156459045410157
16471,0.542322235107422,8.484207000732422,1.0816506958007812
16537,-0.03592529296875,8.249495086669922,2.136357421875
16604,0.6905140686035156,8.700956268310547,1.5820600891113281
16671,0.6393205261230469,10.148595886230469,2.1022283935546877
16737,1.2934602355957032,10.815459136962891,2.4721092224121093
16803,0.9047186279296875,10.765762481689453,2.1145028686523437
16871,0.21405487060546877,10.529104614257813,2.0748353576660157
16937,0.6614744567871094,8.525670776367187,1.5871495056152345
17004,0.027393035888671875,9.529633026123047,2.2544618225097657
17071,0.650247802734375,8.537196807861328,1.866618347167969
17137,0.9370513916015626,12.543316040039063,3.1690599060058595
17204,0.04999603271484375,11.36197265625,2.7390042114257813
17271,0.3983216857910156,11.552227020263672,2.442919921875
17337,1.1979588317871095,8.398884429931641,0.13980926513671876
17404,0.7490423583984376,9.006770324707032,1.1084449768066407
17471,0.36314483642578127,7.486381988525391,1.0602452087402345
17537,0.05059478759765625,6.966962127685547,0.5881269836425782
17603,0.4099974060058594,8.104147338867188,1.2160711669921875
17670,0.4559518432617188,8.504115600585937,1.8540444946289063
17737,0.9732760620117188,7.834408264160157,2.4071443176269534
17804,0.9668394470214844,9.84592529296875,2.4864793395996094
17871,0.6451583862304687,7.971373443603516,1.2469070434570313
17937,1.0023156738281251,8.850345611572266,1.2734019470214843
18003,0.47975234985351567,9.619595947265626,1.0819500732421876
18071,0.4412823486328125,8.179740142822267,2.831062774658203
18137,0.30072463989257814,7.748037872314454,1.7250128173828125
18204,0.1095721435546875,8.689130859375,2.2944287109375003
18271,0.13741424560546875,6.331084442138672,0.3882925415039063
18338,-0.034727783203125,7.730374603271485,0.8225395202636719
18404,0.26180557250976566,7.649542694091798,1.6697776794433594
18471,0.30895751953125,7.914791107177734,2.5631199645996094
18537,0.6903643798828125,11.74891799926758,3.587140502929688
18604,0.9490264892578125,12.90197021484375,1.7844392395019533
18671,0.7191046142578126,11.021580505371094,1.4997312927246094
18737,0.6198609924316406,10.88626190185547,1.4383589172363282
18803,0.513731689453125,8.593479766845704,1.1632310485839845
18871,0.396375732421875,9.927954711914063,1.8467097473144531
18937,0.7521858215332031,7.512876892089844,0.8087681579589844
19009,0.6378236389160157,8.793613586425781,2.102677459716797
19071,0.46702880859375,7.189100189208984,0.5167254638671875
19137,0.19968475341796876,8.912616119384767,1.2678634643554687
19206,-0.13067825317382814,11.387120361328126,2.745889892578125
19271,0.34712814331054687,8.118816833496094,2.4932153320312502
19337,0.8412506103515626,10.000853118896485,2.4876768493652346
19408,0.8652008056640625,8.432115325927734,1.3365705871582032
19471,0.4896318054199219,10.574310607910157,1.10410400390625
19537,0.8412506103515626,9.775870971679687,2.0878582763671876
19606,0.2496807861328125,10.406659240722657,2.5132736206054687
19671,0.5610333251953126,9.090745697021484,1.6616944885253908
19737,0.3311114501953125,9.459429016113281,1.5151492309570314
19806,0.8223898315429687,9.012159118652344,0.6304888916015625
19871,0.23067031860351564,10.229427795410157,1.3813275146484376
19942,0.8171507263183594,9.597891082763672,3.074905700683594
20006,0.5822891235351563,8.380472717285157,1.7176780700683594
20071,-0.8770262145996094,7.518115997314453,1.5712825012207032
20137,0.3608995056152344,10.405611419677735,0.4046086120605469
20205,-1.404529266357422,7.415728912353516,1.0460247802734375
20271,0.7854167175292969,7.544161834716797,0.2341131591796875
20337,1.1752061462402343,5.9637483215332034,0.4454736328125
20406,1.1515553283691407,11.170221405029297,2.5894651794433594
20471,1.0530601501464845,12.00713104248047,4.065845031738282
20537,0.19249969482421875,10.92323501586914,4.910987548828126
20605,0.7791297912597657,9.902357940673829,0.9213340759277344
20671,0.6259982299804688,9.57723403930664,0.42032592773437505
20737,0.7391629028320312,8.078550567626953,0.16525634765625
20807,0.8569679260253906,6.818770294189454,1.5191908264160157
20871,0.9910890197753907,11.424841918945313,3.3895513916015627
20937,-0.7984396362304688,9.034313049316406,1.9371217346191407
21004,0.1359173583984375,11.27859603881836,2.284998321533203
21071,0.8770262145996094,9.137897644042969,2.491568756103516
21137,-0.1886077880859375,8.578510894775391,2.5167164611816406
21204,0.09490264892578125,9.176667022705079,3.4046699523925783
21271,0.7129673767089844,9.693392486572266,2.2695803833007813
21337,0.6135740661621094,9.304950256347658,2.0645068359375003
21404,-0.1429527282714844,8.824150085449219,3.495381317138672
21471,0.0437091064453125,9.841434631347656,0.968785400390625
21537,0.4908293151855469,11.101663970947266,1.9092796325683594
21608,0.2712359619140625,9.634415130615235,1.4712904357910157
21671,0.39053787231445314,10.233619079589845,2.925516357421875
21737,-0.31719039916992187,9.904154205322266,2.6568251037597657
21806,-0.4436773681640625,8.8088818359375,2.5801844787597656
21871,-0.3992198181152344,8.536598052978515,3.789819030761719
21937,0.11032058715820313,10.098001098632812,4.26358383178711
22005,0.3890409851074219,9.868977355957032,3.6386334228515627
22071,0.8503816223144531,8.14740737915039,1.986369323730469
22137,1.3069322204589844,10.149494018554687,2.255659332275391
22206,1.1359877014160156,8.108488311767578,1.5212864685058594
22271,0.3769161987304688,9.447603607177735,2.7005342102050784
22337,0.18875747680664062,9.529932403564453,3.153941345214844
22408,0.8008346557617188,12.540322265625,4.467310180664063
22471,-0.09190887451171875,10.966944122314453,3.373983764648438
22537,0.5013075256347657,9.102720794677735,1.3067825317382813
22609,0.8360115051269532,8.860075378417969,1.430874481201172
22671,0.5629792785644532,8.397836608886719,2.01181640625
22737,0.26494903564453126,9.422755279541017,2.3679258728027346
22803,0.4064048767089844,8.849148101806641,2.778372344970703
22871,0.202379150390625,9.763596496582032,2.698288879394531
22937,0.33365615844726565,10.309511260986328,1.6910334777832032
23006,0.3849993896484375,10.163714447021485,2.14833251953125
23071,0.4324507141113281,9.472152557373047,1.6961228942871094
23137,0.7271878051757813,8.695866851806642,2.0252883911132815
23206,0.5087919616699219,9.759854278564454,2.6397605895996095
23271,0.9898915100097657,9.630672912597657,2.8234286499023438
23337,0.3921844482421875,9.774972839355469,2.913391571044922
23408,0.47496231079101564,8.106542358398437,1.5096107482910157
23471,-0.0335302734375,8.847501525878906,0.7020401000976563
23537,-0.8012837219238281,10.555898895263672,1.8395246887207033
23609,0.5721102905273437,10.01357666015625,2.0172052001953125
23671,0.10208770751953125,7.906707916259766,2.4935147094726564
23737,-0.25312362670898436,9.318721618652344,2.2004241943359375
23806,0.3047662353515625,11.375444641113281,2.818638610839844
23871,0.5025050354003906,9.992769927978516,2.9117449951171874
23937,0.6177653503417969,10.352022857666016,2.1510269165039064
24005,0.20627105712890625,9.651030578613282,2.2683828735351566
24071,0.5366340637207031,10.490185546875,2.840642852783203
24137,0.4819976806640625,9.583520965576172,2.667902069091797
24206,0.3335064697265625,9.42095901489258,2.9090505981445314
24271,0.26120681762695314,10.440638580322267,2.52195556640625
24337,0.4507127380371094,10.627300415039063,3.449726257324219
24407,0.8017327880859375,9.494905242919922,1.6277151489257813
24471,0.8096662902832031,10.187814331054687,1.962718505859375
24537,0.28351043701171874,9.195078735351563,1.6564553833007813
24606,1.1946656799316406,8.894354095458985,1.4151571655273438
24671,0.43918670654296876,11.486663360595704,3.1464569091796877
24737,1.235680389404297,9.57334213256836,2.210303649902344
24806,0.5020559692382813,7.3832464599609375,1.445394287109375
24871,0.4709207153320313,7.269033966064454,0.2860551452636719
24941,0.7529342651367188,9.520052947998048,1.9643650817871094
25004,0.10208770751953125,9.676028594970704,1.1731105041503906
25071,0.33410522460937503,7.952213287353516,1.5654446411132814
25137,-0.645457763671875,7.8763211059570315,2.8762687683105472
25209,0.5132826232910157,8.389154663085938,2.5860223388671875
25271,0.5899232482910156,9.912237396240235,2.073787536621094
25337,0.45535308837890626,9.768087158203125,1.7473164367675782
25405,0.6503974914550782,11.178603973388672,1.6567547607421875
25471,1.042881317138672,10.772797851562501,2.4700135803222656
25537,0.7553292846679688,9.795779571533204,1.3892610168457031
25610,0.18965560913085938,8.635093231201171,2.8349546813964843
25671,0.39772293090820315,9.785451049804688,2.904110870361328
25737,0.4950205993652344,9.720037078857422,3.514391784667969
25807,1.2774435424804689,11.363319854736329,6.179898834228516
25871,1.0349478149414062,9.789941711425781,3.5383419799804687
25937,-0.08816665649414063,10.66502197265625,4.711452484130859
26009,2.9955706787109375,8.406368865966797,3.2153137207031253
26071,0.290994873046875,10.041568450927734,1.8600320434570314
26137,1.8402731323242187,9.472601623535157,0.7382647705078126
26206,2.7657984924316406,9.935139770507813,-0.00868194580078125
26271,0.9734257507324219,10.335257720947267,-0.09370513916015626
26337,-1.0747650146484375,8.285270690917969,-0.35296600341796874
26404,-2.4278013610839846,14.753020935058595,4.857249298095703
26471,-0.5331912231445313,6.165079650878907,3.4482293701171876
26537,2.2766157531738282,10.596763916015625,2.4659719848632813
26607,0.4358935546875,9.875713348388672,1.9422111511230469
26671,2.1240829467773437,4.582420806884766,-0.02544708251953125
26737,-0.5110372924804688,6.946454772949219,1.5983761596679689
26805,1.4277310180664062,10.083780670166016,2.121837615966797
26871,0.69695068359375,8.628656616210938,1.9357745361328127
26937,1.4783258056640625,6.222111053466797,-0.33605117797851564
27008,1.3401631164550782,10.226883087158203,1.3093272399902345
27071,0.6435118103027344,10.831176452636718,4.207749938964844
27137,1.3651611328125002,9.463320922851564,1.2629237365722656
27208,0.7912545776367188,11.195069732666017,4.310586090087891
27272,1.0355465698242188,12.343631286621095,5.173840942382813
27337,0.7481442260742188,9.563911743164063,2.2736219787597656
27406,1.5919395446777345,9.266629943847656,3.2160621643066407
27470,0.5559439086914063,7.976911926269532,0.8033793640136719
27537,-0.3020718383789063,8.076903991699218,-0.14100677490234376
27609,0.8229885864257813,10.869197387695314,2.4060964965820313
27671,0.5565426635742188,9.547595672607422,2.5764422607421875
27737,1.5094610595703126,10.1021923828125,3.536396026611328
27806,-0.37511993408203126,10.2650537109375,3.014132080078125
27871,0.929267578125,9.629475402832032,2.8039691162109377
27937,-0.5993536376953126,8.630602569580079,1.2418176269531251
28009,1.1862831115722656,10.129735107421876,1.750609588623047
28071,0.7283853149414062,11.538156280517578,5.219046936035157
28137,0.07798782348632813,6.793023834228516,-0.5068460083007813
28209,1.0062075805664064,9.786648559570313,3.919299774169922
28271,0.3212319946289063,8.353528747558594,2.2782623291015627
28337,0.3050656127929688,12.437037048339844,3.313359832763672
28404,0.4221221923828125,9.551188201904298,2.8671377563476566
28471,0.06182144165039063,8.873397674560547,2.3935226440429687
28537,0.8146060180664063,7.3639366149902346,2.219734039306641
28606,-0.30805938720703124,8.552015991210938,0.2664459228515625
28671,0.6010002136230469,9.866732025146485,1.1463162231445314
28737,0.5676196289062501,9.308243408203126,2.069147186279297
28804,0.8846603393554688,8.512198791503907,5.170996856689453
28871,0.08128097534179687,5.892945556640625,1.7561480712890627
28937,0.45610153198242187,8.58375,1.9684066772460938
29004,0.6833290100097656,10.035281524658204,1.7588424682617188
29071,0.6072871398925782,9.235943756103516,3.249742126464844
29137,-0.5510041809082031,7.251670074462891,-0.45265869140625004
29206,1.2316387939453126,6.066135406494141,-0.113763427734375
29271,2.592309265136719,10.66397415161133,2.5008494567871096
29337,-0.7217990112304687,9.002129974365236,1.3939013671875
29406,0.599952392578125,11.747421112060547,3.3843122863769532
29471,-0.3688330078125,9.009165344238282,2.4406745910644534
29537,1.3909075927734376,13.673016815185548,4.270020446777344
29606,0.061671752929687504,10.51937484741211,1.6720230102539064
29671,0.33769775390625,8.21731201171875,2.296524353027344
29737,1.5380516052246094,10.763367462158204,2.9089009094238283
29808,-0.2233355712890625,8.204438781738281,2.2043161010742187
29871,0.6727011108398437,10.00534378051758,2.2135968017578125
29941,1.1536509704589843,9.439370727539062,1.2846286010742187
30003,0.5622308349609375,8.829838256835938,1.7034576416015625
30071,0.08128097534179687,9.856403503417969,2.404449920654297
30137,0.2177970886230469,7.873477020263672,0.1395098876953125
30209,-0.6890171813964844,9.934840393066407,3.8740937805175784
30271,-0.6770420837402344,8.181087341308594,1.064586181640625
30337,1.3921051025390625,8.937015380859375,3.830384674072266
30408,0.3399430847167969,11.834839324951172,2.5224046325683593
30471,0.057330780029296875,10.44752426147461,3.1296917724609377
30537,0.3391946411132813,8.831634521484375,2.142344970703125
30609,0.820144500732422,10.09830047607422,2.040556640625
30671,0.07828720092773438,7.702233123779298,0.9211843872070313
30737,0.707728271484375,8.950786743164063,2.0160076904296877
30807,0.14804214477539063,11.92046127319336,4.076023864746094
30871,0.4046086120605469,11.781849517822266,2.5474026489257815
30937,0.6818321228027344,9.53981185913086,1.9200572204589845
31010,1.2243040466308595,9.825417938232423,2.5372238159179688
31071,1.9642153930664064,9.457183685302734,2.3162832641601563
31137,-0.3242257690429688,10.57206527709961,4.0408470153808596
31206,0.9274713134765625,10.16206787109375,2.4780967712402346
31271,-0.7325765991210937,8.845854949951173,1.3061837768554687
31337,1.7263600158691408,8.46250213623047,1.1431727600097656
31408,-0.31225067138671875,10.380912780761719,2.7258316040039063
31471,0.3860472106933594,9.461674346923829,3.0493089294433595
31537,0.32257919311523436,12.22792190551758,5.074148254394531
31609,0.6872209167480469,7.252418518066406,1.1645782470703125
31671,0.9571096801757814,8.950786743164063,1.870360565185547
31737,0.5255570983886719,8.42852279663086,2.2553599548339847
31806,1.5694862365722657,8.500523071289063,3.7473074340820314
31871,0.8753796386718751,10.345436553955079,1.3593232727050781
31937,1.4757810974121095,9.452693023681642,1.8377284240722658
32008,0.6721023559570313,8.576415252685548,0.8641529846191407
32071,0.6619235229492187,10.33301239013672,2.6553282165527343
32137,1.9511924743652345,10.307864685058595,3.962410125732422
32207,-0.009729766845703125,9.772877197265625,3.998335418701172
32271,0.53408935546875,7.7284286499023445,2.070494384765625
32337,0.3165916442871094,9.461075592041016,4.064497833251953
32406,-0.4025129699707031,10.172845458984375,3.652105407714844
32471,-0.054636383056640626,7.840994567871094,1.5768209838867189
32537,-0.36898269653320315,10.68702621459961,3.8351747131347658
32608,-1.22385498046875,7.809859313964844,1.8532960510253906
32671,-0.40490798950195317,6.621031494140626,2.1499790954589844
32737,-0.37616775512695316,12.273726654052735,3.9832168579101563
32809,-0.4037104797363281,10.950927429199218,1.61184814453125
32871,-0.29488677978515626,10.429411926269532,4.319717102050782
32937,-0.5661227416992187,7.8393479919433595,3.7702098083496094
33009,-0.14894027709960939,11.543096008300783,4.197271728515625
33071,-0.4236190795898438,9.431437225341798,2.88120849609375
33137,0.0652642822265625,9.82002914428711,3.2099249267578127
33208,-0.7363188171386719,7.901768188476563,2.1787193298339846
33271,0.33215927124023437,10.85078567504883,2.199226684570313
33337,-0.5966592407226563,9.860594787597657,3.32668212890625
33408,1.0109976196289063,9.83110610961914,4.503684539794922
33471,1.0794053649902344,12.141102447509766,5.1485435485839846
33537,1.152902526855469,10.090965728759766,2.6270370483398438
33608,1.688339080810547,9.86837860107422,4.5479924011230475
33671,0.7223977661132813,6.778803405761719,2.7003845214843754
33737,0.1675016784667969,7.934699707031251,2.753973083496094
33808,1.2599299621582032,8.506061553955078,2.4406745910644534
33871,0.9821076965332032,9.52589080810547,1.914668426513672
33937,0.6245013427734375,10.182275848388672,4.0300694274902344
34010,0.8454418945312501,8.643026733398438,1.6031661987304688
34071,1.7007632446289063,9.840386810302736,1.099463653564453
34137,0.0056881713867187505,11.531120910644532,3.4133518981933597
34208,0.2279759216308594,7.612868957519532,1.4778767395019532
34271,0.33724868774414063,11.595037994384766,4.032165069580079
34337,0.44622207641601563,10.718760223388673,3.928879852294922
34409,0.22378463745117189,9.758207702636719,3.2692016601562504
34471,1.1039543151855469,7.91883270263672,3.3190480041503907
34537,-0.9083111572265625,11.118728485107422,3.5317556762695315
34610,0.8283773803710938,10.099198608398439,3.3194970703125
34671,0.49067962646484375,9.055868225097656,2.8407925415039066
34737,-0.13427078247070312,9.721234588623048,3.3256343078613284
34808,0.4321513366699219,9.358688507080078,3.9134619140625
34870,-0.08128097534179687,9.737850036621094,2.5065376281738283
34942,0.8430468750000001,10.23197250366211,3.291654968261719
35006,-0.11945159912109375,9.425150299072266,2.9841943359375
35071,0.32332763671875003,8.783584442138672,2.518662414550781
35137,0.6251000976562501,9.609417114257813,2.6667045593261722
35209,1.2162208557128906,9.602232055664063,3.353775787353516
35271,0.10268646240234376,8.951834564208985,2.5569827270507814
35337,0.137713623046875,9.207652587890626,2.0734881591796874
35403,0.4113446044921875,8.541238403320312,2.742147674560547
35471,0.9620494079589844,9.246272277832032,3.3364118957519535
35537,0.6547384643554688,9.295370178222656,1.6407380676269532
35609,1.0376422119140625,11.384725341796875,2.558479614257813
35671,1.0279124450683594,8.680448913574219,3.4804124450683593
35737,0.314945068359375,7.689509582519531,1.5230827331542969
35806,0.16630416870117187,8.00939437866211,2.7307713317871096
35871,1.3699511718750002,13.340857543945313,5.307063903808594
35937,-0.3119512939453125,10.791508941650392,3.4554144287109376
36003,1.2850776672363282,10.87144271850586,3.516637115478516
36071,0.5752537536621094,11.436966705322266,5.067561950683594
36137,-0.6068380737304688,9.55463104248047,2.159409484863281
36204,-0.00029937744140625,9.89427474975586,1.8606307983398438
36271,-0.7256909179687501,11.345806274414063,4.249812469482422
36337,-0.858464813232422,10.224039001464844,3.9140606689453126
36407,-0.4692741394042969,7.69040771484375,2.9608428955078128
36471,-0.8339158630371094,7.769293670654298,1.5679893493652344
36537,-1.5269746398925783,9.94367202758789,2.932551727294922
36605,-0.5397775268554688,12.4014111328125,3.669319610595703
36671,-1.4980847167968752,7.649243316650391,3.6145335388183595
36737,-1.8181192016601564,8.421038360595704,2.4632775878906252
36806,-2.708168334960938,8.60335922241211,3.326831817626953
36871,-2.7020310974121093,9.275311889648439,2.7321185302734374
36937,-2.143392791748047,10.414892120361328,3.0455667114257814
37009,-3.9152581787109377,9.243727569580079,3.2141162109375
37071,-3.3033306884765627,9.640103302001954,3.3317715454101564
37137,-3.278632049560547,9.956844635009766,4.506828002929688
37206,-2.325114898681641,12.543016662597656,5.593268737792969
37271,-1.9880158996582031,8.674461364746094,3.2236962890625
37337,-1.4926959228515626,7.4272549438476565,1.9968475341796876
37409,-2.150428161621094,8.447084197998047,2.2038670349121094
37471,-1.7327966308593752,8.876990203857423,2.562072143554688
37537,-2.049537963867188,11.050470428466797,3.8950502014160158
37606,-2.136207733154297,10.9260791015625,3.659140777587891
37671,-2.403252410888672,10.853031005859375,3.6241136169433594
37737,-2.979254608154297,8.034691772460938,2.634222106933594
37806,-1.2734019470214843,7.243886260986328,2.152224426269531
37871,-3.3852104187011722,9.141639862060547,2.7247837829589847
37937,-3.130440216064453,8.884474639892579,1.8546432495117189
38009,-2.4589366149902343,10.00354751586914,2.7336154174804688
38071,-2.142344970703125,9.680818634033203,4.2391845703125
38137,-2.6430537414550783,8.560697937011719,5.498366088867188
38206,-3.068918151855469,8.792715454101563,4.069886627197266
38271,-2.925516357421875,6.874604187011719,2.0119660949707034
38337,-1.6163388061523438,7.843539276123047,1.8646723937988283
38406,-1.9193087768554689,10.04516098022461,3.6922219848632816
38471,-2.425256652832031,9.292825469970703,2.6993367004394533
38537,-2.5566833496093753,8.682843933105469,3.088377685546875
38609,-2.412982177734375,8.369395751953125,3.160228271484375
38671,-2.758014678955078,8.510552215576173,1.1320957946777344
38737,-1.2711566162109376,9.782906341552735,2.1276754760742187
38807,-1.2534933471679688,10.956765289306642,3.3560211181640627
38871,-2.923869781494141,8.218958587646485,0.8235873413085938
38937,-2.038011932373047,7.487729187011719,2.202220458984375
39008,-2.3635848999023437,10.375823364257814,3.8321809387207035
39071,-2.2433848571777344,12.315040740966797,4.098626861572265
39137,-2.2457798767089843,11.564651184082031,2.2471270751953125
39208,-2.0185523986816407,7.450606384277344,1.7995578002929689
39271,-2.169588317871094,8.476123809814453,2.0910017395019533
39337,-2.7336154174804688,8.10235107421875,1.6564553833007813
39408,-1.0780581665039064,11.805051269531251,4.671635284423829
39471,-2.804268493652344,8.106841735839843,3.334615631103516
39537,-4.415667572021484,10.493179321289062,2.629432067871094
39605,-2.4405249023437503,7.624095611572266,3.337010650634766
39671,-2.6840684509277346,3.993246002197266,2.3568489074707033
39737,-2.941982116699219,9.534273376464844,1.3861175537109376
39806,-2.6265879821777345,8.567583618164063,1.2744497680664064
39871,-2.33993408203125,10.021510162353517,3.603007507324219
39942,-3.384012908935547,9.508227539062501,3.021167449951172
40006,-2.6662554931640625,8.599467315673829,3.0814920043945313
40071,-2.8060647583007814,8.352780303955079,1.9113752746582031
40137,-2.5965005493164064,9.571396179199219,2.0677999877929687
40208,-2.2995181274414063,10.0782421875,3.313060455322266
40271,-2.1145028686523437,9.86792953491211,3.503314819335938
40337,-1.9558328247070313,10.894195404052734,2.908601531982422
40409,-2.0166064453125,9.185648345947266,1.8625767517089844
40470,-2.0377125549316406,9.728269958496094,1.35797607421875
40537,-2.2540127563476564,8.014932861328125,0.3158432006835938
40605,-1.931583251953125,10.54422317504883,3.425776062011719
40671,-1.6413368225097658,9.98244140625,2.117197265625
40737,-2.602039031982422,8.7035009765625,2.708617401123047
40807,-1.0075547790527344,8.969946899414063,1.7113911437988283
40871,-0.7825726318359375,9.147477722167968,1.046473846435547
40937,-1.9896624755859376,10.509345703125,2.8960276794433595
41008,-1.2485536193847657,8.415948944091797,0.9969268798828126
41071,-1.6621435546875,8.743318176269531,1.4626084899902345
41137,-1.9702029418945313,9.952054595947265,2.2218296813964846
41206,-1.4322216796875,9.495354309082032,1.9893630981445314
41271,-2.043849792480469,10.422526245117188,2.289339294433594
41337,-2.2484742736816408,9.189240875244142,0.9223818969726563
41408,-1.7744100952148438,10.642868041992188,2.7331663513183595
41471,-1.5705340576171876,9.518406372070313,2.8159442138671875
41537,-2.2538630676269533,9.503587188720704,2.6033862304687503
41608,-1.3846206665039062,9.34342025756836,1.2353810119628907
41671,-1.6509169006347657,9.23953628540039,0.7816744995117187
41737,-1.4379098510742188,10.253228302001954,1.4946418762207032
41805,-0.8795709228515626,8.854686584472656,0.6466552734375001
41871,-0.37362304687500003,10.262359313964843,1.92799072265625
41937,-0.8644523620605469,10.529553680419923,2.332299957275391
42008,-0.21944366455078126,10.281070404052734,2.3164329528808594
42071,-0.3299139404296875,10.099797363281251,1.7465679931640625
42137,-0.07933502197265625,10.877130889892578,2.2986199951171877
42208,-0.11331436157226563,9.04404281616211,0.6209088134765626
42271,-0.49412246704101564,9.753866729736329,0.8529263305664063
42337,-0.6725514221191407,9.557175750732423,2.1736299133300783
42406,-0.46717849731445316,10.282866668701173,2.4939637756347657
42471,-0.7499404907226563,10.906020812988281,2.3203248596191406
42537,-0.5382806396484375,10.838211822509766,2.342179412841797
42609,-0.20043319702148438,11.931388549804689,1.2415182495117187
42671,-1.542093200683594,9.095835113525391,1.495689697265625
42737,-0.8569679260253906,9.413175201416015,0.9380992126464844
42806,-0.19309844970703127,8.130941619873047,1.0672805786132813
42871,0.19714004516601563,7.080126800537109,1.109941864013672
42937,0.01107696533203125,7.73351806640625,0.7418572998046875
43006,0.21929397583007815,10.71816146850586,2.9701235961914065
43071,0.32213012695312504,10.722203063964844,1.4985337829589844
43137,0.011675720214843751,11.575877838134765,2.251318359375
43204,0.5171745300292969,10.997330932617189,2.217638397216797
43271,0.3875440979003906,10.053543548583985,2.3305036926269533
43337,-0.1621128845214844,9.170829162597657,2.2905368041992187
43405,-0.7524851989746094,9.43877197265625,2.887046356201172
43471,-0.39248382568359375,8.788823547363283,2.4275019836425784
43537,-0.36015106201171876,9.674082641601563,2.844983825683594
43610,0.8759783935546875,9.206006011962891,2.2269190979003906
43671,0.7610174560546875,9.064250793457031,2.8958779907226564
43737,-0.42840911865234377,8.88312744140625,2.3670277404785156
43808,0.05673202514648438,9.206155700683594,2.9294082641601564
43871,0.7870632934570313,10.76082275390625,3.462749176025391
43937,0.22977218627929688,10.340347137451172,2.4474105834960938
44009,0.9090596008300782,9.223369903564453,2.731519775390625
44071,0.24998016357421876,9.583820343017578,2.5451573181152347
44137,1.0029144287109375,9.432634735107422,2.1513262939453126
44210,-0.40505767822265626,9.294621734619142,2.6899063110351564
44271,-0.38739440917968754,10.08587631225586,3.181484069824219
44337,0.40311172485351565,10.69810317993164,3.230432281494141
44408,0.5026547241210938,9.359436950683595,3.2659085083007815
44471,0.3914360046386719,9.614805908203126,3.7654197692871096
44537,0.6623725891113281,9.403445434570314,3.1470556640625
44609,0.9113049316406251,7.881111145019531,2.5602758789062503
44671,1.0571017456054688,9.944869537353517,2.625091094970703
44737,0.7521858215332031,9.469009094238281,3.8655615234375
44806,0.46912445068359376,8.923543395996095,3.1582823181152344
44871,0.5421725463867187,9.236542510986329,2.903811492919922
44943,0.4429289245605469,9.526489562988282,2.979104919433594
45006,0.8509803771972657,10.539582824707033,2.2306613159179687
45071,1.0030641174316406,9.752369842529298,3.184926910400391
45137,0.7752378845214845,9.936786346435547,3.363355865478516
45206,1.1285032653808593,8.184979248046876,3.1617251586914064
45271,0.7963439941406251,10.042167205810548,3.557502136230469
45337,0.4836442565917969,9.465266876220703,2.5057891845703124
45406,1.0585986328125,9.141041107177735,1.5811619567871094
45471,0.7039860534667969,8.94105697631836,2.4444168090820315
45537,0.8382568359375,10.301577758789064,3.8338275146484375
45606,0.8199948120117188,9.652677154541015,2.6541307067871096
45671,0.6248007202148438,10.204280090332032,2.957400054931641
45737,0.7042854309082032,10.025701446533203,2.4572900390625003
45809,0.8101153564453125,10.37761962890625,3.48954345703125
45871,1.114731903076172,10.521470489501954,2.7342141723632816
45937,0.6572831726074219,9.555229797363282,2.6758355712890625
46005,1.0371931457519532,9.078920288085937,2.1953347778320316
46071,0.8916957092285157,7.948171691894531,2.544708251953125
46137,0.2989283752441406,8.171656951904298,2.4242088317871096
46206,0.5833369445800781,9.648186492919923,3.59013427734375
46271,-0.022902374267578126,9.470955047607422,3.827091522216797
46337,1.0062075805664064,9.026379547119141,2.7812164306640628
46406,0.45460464477539064,9.518556060791017,2.927611999511719
46471,0.4896318054199219,9.834698638916016,2.5604255676269534
46537,0.7704478454589844,9.582622833251953,2.3174807739257814
46608,0.7084767150878907,9.418414306640626,2.454745330810547
46671,0.5203179931640626,9.69593719482422,3.2328273010253907
46737,0.6632707214355469,9.378896484375,3.0549971008300782
46805,0.7581733703613281,9.637857971191407,3.4657429504394535
46871,0.6752458190917969,9.187893676757813,2.961591339111328
46937,0.7222480773925781,9.760902099609375,3.4431399536132816
47006,0.5307962036132813,9.25196044921875,3.019969940185547
47071,0.09774673461914063,8.542735290527345,2.9439280700683597
47137,-0.39428009033203126,8.79451171875,2.6680517578125
47209,-0.2808160400390625,10.822644195556641,3.659440155029297
47271,0.12678634643554687,9.661808166503906,3.283272399902344
47337,0.6318360900878907,10.699151000976563,4.248914337158204
47409,0.6539900207519531,9.629625091552734,3.1157707214355472
47471,0.7758366394042969,9.683662719726563,2.745889892578125
47537,1.0398875427246095,8.059839477539063,2.313289489746094
47606,0.6292913818359376,8.09801010131836,2.1474343872070314
47671,0.7438032531738281,9.842781829833985,3.836671600341797
47737,-0.03906875610351563,7.997269592285156,4.045786743164062
47808,0.10089019775390626,10.61996566772461,4.376299438476563
47871,-0.350870361328125,12.69075942993164,3.021017761230469
47937,0.5468128967285156,9.260492706298828,3.535946960449219
48003,0.34278717041015627,9.98768051147461,3.762276306152344
48071,1.0892848205566408,8.223449249267578,2.9596453857421876
48137,1.149609375,9.888586578369141,3.107388153076172
48208,0.111368408203125,8.364605712890626,3.465443572998047
48271,0.6161187744140625,8.594527587890626,3.1510972595214843
48337,0.05643264770507813,8.99419647216797,2.946921844482422
48406,0.25896148681640624,8.50561248779297,3.1031968688964846
48471,0.01945953369140625,8.364755401611328,2.8165429687500003
48537,0.21151016235351563,9.451794891357423,3.0334419250488285
48609,0.11825408935546876,9.819580078125,3.117866363525391
48671,0.0056881713867187505,8.045020294189454,2.386487274169922
48737,0.43005569458007814,9.236243133544923,2.3426284790039062
48809,0.3561094665527344,9.341324615478516,2.814297637939453
48871,0.6075865173339844,8.361611938476562,2.4604335021972656
48937,0.00987945556640625,9.367969207763672,2.788551177978516
49004,0.3357518005371094,9.592202911376953,2.7300228881835937
49071,0.3309617614746094,9.254654846191407,2.721490631103516
49137,0.6589297485351563,9.777218170166016,3.2651600646972656
49208,0.2655477905273438,9.016350402832032,2.8021728515625
49271,0.6863227844238282,8.656648406982422,3.6818934631347657
49337,0.3028202819824219,9.182804260253906,4.380191345214844
49405,0.8940907287597657,9.359586639404297,4.497098236083985
49471,0.9695338439941407,9.738748168945312,2.4673191833496095
49537,0.9768685913085938,9.41811492919922,3.5883380126953126
49606,0.25776397705078125,9.564959564208985,3.13508056640625
49671,0.01945953369140625,9.459429016113281,3.1488519287109376
49737,0.7698490905761719,8.078251190185547,2.658621368408203
49806,0.14220428466796875,7.887847137451172,1.5905923461914064
49871,0.7216493225097657,10.560539245605469,4.311633911132812
49945,0.417930908203125,10.332263946533203,3.293002166748047
50004,0.69216064453125,10.32732421875,3.2585737609863283
50071,0.6981481933593751,9.135951690673828,4.086053009033203
50137,0.4098477172851563,9.147477722167968,3.3808694458007813
50207,0.45460464477539064,8.935069427490236,2.9440777587890627
50272,0.5195695495605469,8.583600311279298,2.7140061950683596
50337,0.4831951904296875,9.397906951904297,3.425925750732422
50403,0.711171112060547,10.009385375976564,3.497327270507813
50471,0.7909552001953125,10.078990631103515,3.6280055236816406
50537,0.041912841796875,7.308551788330078,2.371967468261719
50606,0.025746459960937502,11.037447509765625,4.386927337646485
50671,1.2717553710937501,11.652368774414063,5.575006713867188
50737,1.5633489990234375,11.457623748779298,2.6623635864257813
50804,-0.057779846191406255,9.364676055908204,4.084406433105469
50871,1.0346484375,10.199490051269532,3.823049926757813
50937,1.256187744140625,8.540190582275391,3.699706420898438
51008,0.8887019348144531,8.834927673339845,3.4179922485351564
51071,0.8454418945312501,9.705666961669923,4.846771087646484
51137,0.7854167175292969,10.725645904541016,4.750820617675782
51206,1.6094531250000002,10.236612854003907,4.406087493896485
51271,-0.21405487060546877,9.23130340576172,4.096381530761719
51337,1.1485615539550782,9.555678863525392,4.432133331298829
51406,0.9023236083984375,10.93895233154297,3.965703277587891
51471,0.5295986938476562,9.485923919677735,4.156406707763672
51537,0.7259902954101562,10.200088806152344,6.058052215576172
51606,0.15657440185546875,9.244775390625,3.150199127197266
51671,0.35161880493164066,7.87721923828125,1.620081024169922
51737,1.2187655639648438,9.182355194091798,3.3214430236816406
51805,0.0431103515625,9.448202362060547,3.5284625244140626
51871,-1.012943572998047,11.39400604248047,6.130651245117188
51937,1.0060578918457033,8.133636016845703,3.4013768005371094
52007,0.41927810668945314,8.724457397460938,3.048410797119141
52071,0.6987469482421875,9.742191009521484,2.203268280029297
52137,0.9262738037109376,10.20802230834961,3.793112182617188
52208,-0.03667373657226563,10.240504760742189,5.611231384277344
52271,2.266885986328125,11.346854095458985,3.958518218994141
52337,0.42302032470703127,9.203161926269532,1.4876065063476562
52409,-0.4794529724121094,9.448651428222657,2.1905447387695314
52471,-0.00449066162109375,9.63037353515625,3.1593301391601565
52537,0.5620811462402344,9.6231884765625,3.47038330078125
52606,0.8511300659179688,8.976682891845703,2.967578887939453
52671,0.0700543212890625,8.739126892089844,4.343517608642578
52737,-0.2751278686523438,8.945098571777343,4.280049591064453
52806,1.148262176513672,8.482560424804689,4.549040222167969
52871,-0.3273692321777344,9.514813842773439,4.360282745361328
52937,1.823507995605469,8.367300109863281,6.224655761718751
53006,0.8207432556152344,9.24761947631836,5.197342071533203
53071,0.12319381713867188,8.930279388427735,4.966222686767578
53137,1.1338920593261719,10.108329620361328,5.2401530456542975
53206,1.1466156005859376,9.47754135131836,4.732259216308594
53271,0.8184979248046875,9.714947662353516,5.618266754150391
53337,0.3791615295410156,8.552764434814453,5.078938293457031
53406,0.9792636108398438,7.865094451904297,4.636608123779297
53471,1.1490106201171875,8.76906463623047,4.866979064941407
53537,1.09452392578125,9.596843261718751,4.5954437255859375
53606,1.038091278076172,9.333241424560548,5.032834167480469
53671,1.1060499572753906,9.41332489013672,4.993466033935547
53737,1.5105088806152345,8.638236694335937,4.900808715820313
53809,0.8161029052734375,8.11043426513672,4.492158508300782
53871,1.3455519104003908,8.497379608154297,4.665198669433594
53937,0.9487271118164063,9.042695617675781,4.784350891113282
54005,1.14242431640625,8.828640747070313,4.832400970458985
54071,1.1690689086914063,9.132059783935548,5.077142028808594
54137,0.6692582702636719,8.683891754150391,5.056335296630859
54204,1.157842254638672,8.932225341796876,5.635031890869141
54271,0.2508782958984375,8.909622344970703,5.797893218994141
54337,2.0383113098144534,8.854237518310548,5.101241912841797
54408,1.0485694885253907,9.348958740234375,4.949906616210938
54471,0.93166259765625,8.508606262207032,4.649930419921875
54537,1.0530601501464845,8.218659210205079,4.242777099609375
54609,1.0746153259277345,8.643475799560548,4.327650604248047
54671,1.360221405029297,8.741222534179688,4.853507080078125
54737,0.444276123046875,9.531129913330078,5.820645904541016
54806,0.35835479736328124,8.278235321044923,5.434149627685547
54871,0.8638536071777344,9.642198944091797,6.0061102294921875
54941,0.5351371765136719,8.187823333740235,5.318889312744141
55004,1.3645623779296876,8.430319061279297,4.379891967773438
55071,1.955383758544922,9.24567352294922,4.624034271240235
55137,0.5370831298828125,9.761051788330079,4.493805084228516
55206,0.5519023132324219,8.952133941650391,4.013603668212891
55271,0.51013916015625,8.662635955810547,4.267475738525391
55337,0.945883026123047,8.942553863525392,3.947890319824219
55409,0.6337820434570313,9.279952239990235,4.446952514648438
55471,0.7601193237304688,9.557175750732423,4.640350341796875
55537,0.6566844177246094,9.072483673095704,3.8405635070800783
55606,0.8402027893066407,8.825197906494141,3.2983909606933595
55671,0.5867797851562501,8.95976806640625,3.028502197265625
55737,0.3730242919921875,9.769434356689453,3.386707305908203
55806,0.5438191223144532,9.552834777832032,2.882256317138672
55871,0.57240966796875,9.511371002197267,2.6957441711425782
55937,0.7647596740722656,9.462273101806641,2.313139801025391
56009,0.9601034545898438,9.39760757446289,2.614313507080078
56071,0.6128256225585937,9.784852294921876,2.8839028930664066
56137,0.6536906433105469,9.756561126708984,2.6696983337402345
56205,0.2484832763671875,9.309590606689454,2.348166961669922
56271,0.5605842590332032,9.10436737060547,2.4791445922851563
56337,0.6327342224121094,9.441316680908203,2.5715025329589847
56406,1.014290771484375,9.389075317382813,2.5090823364257813
56471,0.9352551269531251,9.644593963623047,2.4048989868164066
56537,0.7937992858886719,9.989476776123047,2.8865972900390626
56606,0.42107437133789066,9.743538208007813,2.8710296630859378
56671,0.3251239013671875,9.237590332031251,2.6933491516113284
56737,0.31255004882812504,9.444460144042969,2.6551785278320312
56807,0.6870712280273438,9.380992126464845,2.708318023681641
56871,0.9340576171875,9.051976318359376,2.2808070373535156
56937,0.8572673034667969,9.4890673828125,2.442321166992188
57009,1.1000624084472657,9.514364776611329,2.591261444091797
57071,0.7565267944335938,9.415869598388673,2.6402096557617187
57137,0.7176077270507812,9.887838134765625,3.0337413024902347
57208,0.4351451110839844,9.537267150878908,2.8374993896484377
57271,0.6339317321777344,9.242080993652344,2.7306216430664065
57337,0.4093986511230469,9.490414581298829,2.932402038574219
57407,0.760269012451172,9.211544494628907,2.738555145263672
57471,0.7252418518066407,9.353000335693359,3.057541809082031
57537,1.0626402282714844,9.243128814697267,3.124302978515625
57606,0.8225395202636719,9.110354919433595,3.223845977783203
57671,0.7312294006347657,9.363478546142579,3.2229478454589846
57737,0.6679110717773438,9.242530059814454,3.0720616149902344
57809,0.5863307189941407,9.424252166748047,3.270399169921875
57871,0.9216334533691407,9.294472045898438,3.057392120361328
57937,0.8710386657714844,9.321116638183595,3.2584240722656252
58006,1.0078541564941408,9.134005737304689,3.2397129821777346
58071,0.7002438354492188,9.359137573242188,3.263812866210938
58137,0.7479945373535156,9.146429901123048,3.1954051208496095
58209,0.6427633666992187,9.42634780883789,3.267405395507813
58271,0.8737330627441406,9.155111846923829,3.2730935668945316
58337,0.7644602966308595,9.455237731933595,3.2263906860351566
58406,0.8146060180664063,9.301806793212892,2.4706123352050784
58471,0.6852749633789063,9.473050689697265,2.22497314453125
58537,0.8006849670410157,9.456584930419922,1.8564395141601564
58608,0.7458988952636719,9.418713684082032,2.338736572265625
58671,0.8342152404785157,9.375303955078126,2.3614892578125
58737,0.7176077270507812,9.734856262207032,2.245181121826172
58806,0.8713380432128907,9.608668670654298,2.240391082763672
58871,0.6828799438476563,9.528435516357423,2.384990386962891
58937,0.8300239562988282,9.426048431396485,2.185305633544922
59007,0.7313790893554688,9.575288085937501,2.2815554809570315
59071,0.8695417785644531,9.45838119506836,2.2477258300781253
59137,0.6918612670898437,9.562564544677734,2.3668780517578125
59206,0.8241860961914063,9.39655975341797,2.2481748962402346
59271,0.7108717346191407,9.744735717773438,2.358944549560547
59337,0.8408015441894532,9.458680572509767,2.2373973083496095
59408,0.7153623962402345,9.591753845214845,2.381996612548828
59471,0.8048762512207032,9.514215087890625,2.1049227905273438
59537,0.6994953918457032,9.696535949707032,2.341131591796875
59606,0.8006849670410157,9.51196975708008,2.2605990600585937
59671,0.738863525390625,9.505383453369141,2.1140538024902344
59737,0.7842192077636719,9.478140106201172,2.0661534118652343
59804,0.7476951599121094,9.668394470214844,2.2504202270507814
59870,0.6798861694335938,9.400002593994142,2.079026641845703
59946,0.6656657409667969,9.67198699951172,2.3366409301757813
60006,0.7035369873046875,9.384434967041017,2.2879920959472657
60071,0.6824308776855469,9.279203796386719,2.4376808166503907
60137,0.6655160522460938,9.27396469116211,2.255060577392578
60210,0.7726931762695313,9.310039672851563,2.2239253234863283
60270,0.5511538696289062,9.301657104492188,2.4041505432128907
60337,0.7009922790527344,9.257798309326173,2.152673492431641
60407,0.7635621643066407,9.467661895751954,2.18186279296875
60471,0.8575666809082032,9.513167266845704,2.0637583923339844
60537,0.6806346130371094,9.864337005615235,2.3171813964843753
60606,0.5884263610839844,9.932295684814454,2.188748474121094
60671,0.7813751220703126,9.768236846923829,2.0742366027832033
60737,0.7914042663574219,10.063722381591797,2.3128404235839843
60806,0.49097900390625004,10.206525421142578,2.302661590576172
60871,0.8029302978515626,10.031838684082032,2.1224363708496097
60937,0.787811737060547,10.252779235839844,2.3842419433593753
61006,0.5370831298828125,9.734107818603515,1.8064434814453125
61071,0.8455915832519532,9.162296905517579,1.5112573242187501
61137,0.5662724304199219,9.763446807861328,1.469045104980469
61206,0.8875044250488282,10.334658966064454,2.1540206909179687
61271,0.3791615295410156,9.83679428100586,1.5796650695800782
61337,0.9181906127929688,9.3645263671875,1.4699432373046877
61406,0.35775604248046877,9.80236587524414,1.6628919982910157
61471,0.948278045654297,9.582473144531251,1.5624508666992187
61537,0.5638774108886719,9.572593688964844,1.543590087890625
61608,0.6218069458007813,9.824819183349609,1.5190411376953126
61671,0.7430548095703126,9.375453643798828,1.2097842407226562
61737,0.46792694091796877,10.359058227539062,1.8256036376953126
61806,0.8140072631835938,9.086554412841798,0.8660989379882813
61871,0.5483097839355469,9.098379821777344,1.1576925659179689
61937,0.7120692443847657,10.02510269165039,1.7067507934570314
62009,0.8541238403320313,9.377549285888673,1.3021421813964844
62071,0.6959028625488282,9.492959289550782,1.0838960266113282
62137,0.6984475708007812,10.414293365478516,2.059417419433594
62209,0.4448748779296875,10.460397491455078,2.2004241943359375
62271,0.3323089599609375,9.964927825927735,1.9103274536132813
62337,0.8622070312500001,9.650581512451172,1.5621514892578126
62404,0.9355545043945312,9.587562561035156,1.6447796630859375
62471,0.8949888610839845,9.986632690429689,2.20581298828125
62537,0.6616241455078126,9.965825958251953,2.2839505004882814
62607,0.5872288513183594,9.310339050292969,1.8100360107421876
62671,0.5755531311035157,9.248517608642578,1.633253631591797
62737,0.9331594848632813,8.810378723144531,1.357676696777344
62807,0.542322235107422,9.289532318115235,1.7344432067871094
62870,0.7908055114746094,10.065518646240236,2.4864793395996094
62937,0.6345304870605469,8.809929656982423,1.4229409790039063
63005,0.7351213073730469,8.426277465820313,1.3983920288085938
63071,0.767603759765625,8.655450897216797,2.4156765747070312
63137,0.8090675354003907,10.557096405029297,2.0899539184570313
63206,0.6857240295410156,9.443412322998048,1.2587324523925782
63270,0.9903405761718751,9.324709167480469,1.0828482055664064
63337,1.1802955627441407,8.470285949707032,0.3929328918457031
63407,0.9509724426269531,10.39872573852539,1.3451028442382813
63471,1.0454260253906251,9.860894165039063,1.0202783203125
63537,0.9403445434570313,10.562036132812501,1.247655487060547
63606,1.1060499572753906,9.373358001708985,0.6954537963867188
63671,1.0338999938964843,8.471782836914063,0.05598358154296875
63737,1.148262176513672,7.947572937011719,1.7310003662109377
63809,1.209335174560547,7.95146484375,0.07813751220703126
63871,1.5605049133300781,11.646680603027344,2.0050804138183596
63937,1.1850856018066407,9.411678314208984,1.0966195678710937
64005,1.372196502685547,10.320438537597656,1.8610798645019533
64071,1.7420773315429687,9.823771362304688,0.9220825195312501
64137,1.6709751892089844,9.104816436767578,0.38155654907226566
64213,2.015558624267578,10.698402557373047,2.5938061523437503
64271,1.3418096923828127,10.96290252685547,2.069147186279297
64337,1.683549041748047,9.126670989990235,1.0111473083496094
64405,2.1647982788085938,9.59205322265625,0.6060896301269532
64471,1.8892213439941408,9.996212768554688,1.9005976867675782
64537,2.5891658020019532,9.258995819091798,1.3172607421875
64606,3.0204190063476566,9.519603881835938,2.003433837890625
64671,2.8256739807128906,9.286688232421875,1.4133609008789063
64737,2.564916229248047,9.735155639648438,0.6376739501953125
64807,3.0000613403320315,8.28003158569336,-0.4858895874023438
64871,2.1797671508789063,11.908935241699218,2.3143373107910157
64943,2.7538233947753907,10.731633453369142,1.084794158935547
65005,2.4842340087890626,11.620634765625,1.391356658935547
65071,2.0863613891601562,9.289981384277345,1.0490185546875002
65137,0.4435276794433594,12.57714569091797,1.9390676879882813
65209,1.998494110107422,9.355844421386719,-0.06301895141601563
65271,3.041225738525391,9.719588012695313,-0.6792874145507812
65337,3.3391062927246096,10.391241302490235,1.7956658935546876
65406,2.0408560180664064,10.211764526367189,0.7970924377441406
65471,0.6914122009277344,9.742191009521484,0.32751892089843754
65537,1.107846221923828,10.485096130371094,0.47675857543945316
65605,2.322121124267578,8.238118743896484,-1.5850538635253908
65671,2.968327331542969,9.519304504394531,0.6553372192382813
65737,4.620591430664063,8.778644714355469,0.8351133728027345
65806,2.7247837829589847,9.686357116699218,1.9235000610351562
65871,3.146905975341797,7.814948730468751,2.4815396118164066
65937,2.6105712890625,13.323044586181641,5.619763641357422
66006,1.973196716308594,9.826615447998048,3.2409104919433593
66071,0.9475296020507813,8.45576614379883,0.5092410278320313
66137,1.7036073303222656,12.48089584350586,-0.06032455444335938
66206,1.9764898681640626,10.699899444580078,0.6635700988769532
66271,2.518363037109375,9.481283569335938,-0.24099884033203126
66337,2.6458978271484375,10.94763427734375,-0.7526348876953125
66406,1.1927197265625,9.917925567626954,0.07918533325195314
66471,0.99393310546875,9.538165283203126,-0.03158432006835938
66537,1.0461744689941406,8.867410125732423,-0.9680369567871094
66606,0.6212081909179688,10.052944793701172,-0.43604324340820316
66671,0.9032217407226563,10.854078826904297,0.4956193542480469
66737,2.101629638671875,9.707762603759766,0.10942245483398438
66806,2.2656884765625,9.35255126953125,0.69216064453125
66871,1.826202392578125,9.871671752929688,1.1618838500976563
66937,2.3150857543945316,9.097930755615234,0.5769003295898438
67006,1.7718653869628906,10.008786621093751,0.6256988525390625
67071,1.0307565307617188,9.477092285156251,0.8656498718261719
67137,1.2433145141601563,10.203980712890626,1.2482542419433595
67210,1.2003538513183594,12.49571502685547,2.428849182128906
67271,-0.8065228271484376,8.004754028320313,0.4037104797363281
67337,1.4792239379882812,6.388714599609376,-1.3457015991210939
67408,-0.3619473266601563,9.645791473388673,0.3201841735839844
67471,0.1389111328125,10.155780944824219,1.7345928955078125
67537,1.0786569213867188,7.989934844970704,0.7198530578613281
67603,2.1980291748046876,6.5291226196289065,2.2113514709472657
67671,1.3910572814941407,6.826703796386719,0.35700759887695316
67737,-0.5026547241210938,10.35741165161133,1.475481719970703
67803,0.6875202941894532,12.288994903564454,2.877765655517578
67871,1.3822256469726564,10.338999938964845,4.549489288330078
67937,1.5245796203613282,11.338770904541017,5.789959716796876
68003,1.2986993408203125,8.544232177734376,3.331023101806641
68071,0.48035110473632814,7.337591400146485,2.838846588134766
68137,1.2138258361816407,13.85997802734375,5.112767944335938
68203,0.386795654296875,8.697812805175781,1.5832575988769533
68271,2.0505857849121094,6.302493896484376,0.9551637268066406
68337,0.7427554321289063,12.351115722656251,3.7814364624023438
68403,1.8056950378417969,7.23819808959961,-0.28650421142578125
68471,-0.4932243347167969,7.089407501220704,-0.5141807556152344
68537,-0.7932005310058594,3.2855177307128907,-0.29683273315429687
68603,-0.4884342956542969,6.631809082031251,1.4979350280761718
68671,-0.31404693603515627,9.41916275024414,3.2516880798339844
68737,1.5308665466308595,6.787635040283203,2.0745359802246095
68803,1.3349240112304688,10.800490264892579,1.021475830078125
68871,-0.5730084228515625,11.878099365234375,2.087259521484375
68937,-1.076561279296875,12.243040466308594,1.5959811401367188
69003,0.6414161682128906,8.525970153808593,-0.040415954589843754
69071,0.9090596008300782,11.890224151611328,1.3184582519531252
69137,-0.2805166625976563,11.908037109375,-1.1808943176269533
69203,1.689536590576172,6.257886657714844,-0.13846206665039062
69271,0.6752458190917969,8.867110748291015,-1.0684780883789062
69337,-1.3079800415039062,12.615915069580078,2.2469773864746094
69403,0.7776329040527344,7.469317474365234,-0.8822653198242187
69471,2.579286346435547,11.366912384033204,4.267625427246094
69537,-1.7854870605468751,5.2506312561035156,-0.8969348144531251
69603,0.25656646728515625,11.791279907226563,0.5583389282226563
69671,-0.6809339904785157,10.68463119506836,-3.0154792785644533
69737,1.599723358154297,9.651030578613282,-0.4435276794433594
69803,0.9201365661621094,9.956395568847658,-0.7429051208496094
69871,0.011975097656250001,12.824431457519532,1.4214440917968751
69943,0.7403604125976563,7.985593872070313,-2.4472608947753907
70003,-0.49876281738281253,8.498128051757813,0.6206094360351563
70071,-0.8729846191406251,10.180030517578125,-0.4290078735351563
70137,-0.032332763671875,9.811047821044923,-0.3734733581542969
70203,-0.6363267517089845,10.013426971435548,-1.0460247802734375
70271,-1.0490185546875002,8.503816223144531,0.5533992004394531
70337,0.6572831726074219,9.744735717773438,-0.08173004150390625
70403,0.5671705627441407,10.966794433593751,0.14684463500976563
70471,1.3705499267578125,10.456954650878906,2.0812719726562503
70537,-0.33904495239257815,9.784702606201172,0.0449066162109375
70603,1.0374925231933594,11.772868194580079,0.06601272583007813
70671,-1.3439053344726564,12.947026519775392,-3.2160621643066407
70737,-0.7213499450683594,11.13728988647461,0.4034111022949219
70803,0.396375732421875,7.993527374267578,-0.4195774841308594
70871,-0.32647109985351563,8.853938140869142,-0.8381071472167969
70937,0.030686187744140628,8.900940399169922,-1.077609100341797
71003,-0.34099090576171875,10.349478149414063,1.1543994140625
71071,0.38290374755859374,10.890752563476562,2.4816893005371097
71137,-0.6334826660156251,9.47514633178711,0.5275030517578125
71203,1.0732681274414062,7.640860748291016,-1.4097683715820313
71271,0.1585203552246094,8.09471694946289,1.5185920715332033
71337,-1.0852432250976562,7.145989837646485,-1.4443464660644532
71403,2.0230430603027343,13.852942657470704,2.8062144470214845
71471,0.5617817687988281,10.360106048583985,2.283351745605469
71537,-0.5956114196777345,10.031090240478516,-1.9136206054687501
71603,0.4888833618164063,8.848549346923829,-0.09265731811523438
71671,1.1849359130859376,6.8073939514160156,-0.6451583862304687
71737,-0.33829650878906253,11.677067413330079,2.1154010009765627
71803,-0.6336323547363282,9.011410675048829,0.20582199096679688
71871,2.4399261474609375,9.074579315185547,2.405946807861328
71937,-2.4325914001464843,11.300899658203125,2.62254638671875
72003,-1.1979588317871095,13.396541748046875,4.831951904296875
72071,1.7151333618164064,8.047864379882814,2.997666320800781
72137,1.1735595703125001,8.196954345703125,2.748284912109375
72203,3.3913476562500002,7.435188446044922,-0.5626799011230469
72271,3.156336364746094,9.645492095947267,1.28612548828125
72337,-2.1884490966796877,11.047326965332031,3.4944831848144533
72403,-1.9437080383300782,10.01073257446289,7.140601043701173
72471,0.17618362426757814,10.899883575439453,3.545527038574219
72537,-1.0365943908691406,12.266691284179688,2.937341766357422
72603,-0.4782554626464844,9.147926788330079,4.426295471191406
72671,-1.116228790283203,10.453062744140626,4.5866120910644534
72737,-0.6550378417968751,10.49781967163086,4.870421905517579
72803,1.3817765808105469,7.866441650390626,0.8728349304199219
72871,1.8600320434570314,9.62453567504883,-2.090552673339844
72937,2.066303100585938,7.165299682617188,0.5294490051269531
73003,0.18905685424804688,8.44858108520508,3.390000457763672
73070,1.36755615234375,11.521391143798828,3.476071472167969
73137,0.5438191223144532,10.167007598876953,2.897674255371094
73203,1.1093431091308594,10.174641723632813,1.5187417602539064
73271,0.5285508728027344,9.446555786132812,2.5092320251464844
73337,1.5473323059082031,9.602531433105469,3.4169444274902347
73403,1.6175363159179688,10.095606079101563,3.088078308105469
73471,-0.42766067504882815,6.350094909667969,0.31719039916992187
73537,0.4900808715820313,7.693700866699219,0.6313870239257813
73603,2.838996276855469,8.711584167480469,1.0193801879882813
73671,-0.5179229736328125,11.820169830322266,1.5759228515625001
73737,-1.9109262084960938,10.998229064941407,1.8302439880371095
73803,1.7826429748535157,10.227781219482422,0.4614903259277344
73871,-2.7186465454101563,7.586374053955079,-0.9864486694335938
73937,-1.3921051025390625,7.642058258056641,-0.2992277526855469
74003,-0.019010467529296877,5.724994812011719,-0.10837463378906251
74071,-1.0288105773925782,8.320447540283203,1.5263758850097657
74137,-0.2966830444335938,4.939727783203125,2.810555419921875
74203,0.05179229736328125,9.865384826660156,1.0454260253906251
74271,0.13142669677734375,9.830806732177734,2.8500732421875004
74337,1.4326707458496095,9.17382293701172,3.873644714355469
74403,0.9259744262695313,11.429631958007812,3.5402879333496093
74471,1.726659393310547,12.106224975585938,2.694546661376953
74537,2.308499450683594,11.117830352783203,1.4986834716796875
74603,1.4513818359375001,8.304879913330078,2.0673509216308594
74671,1.4386582946777344,9.18489990234375,2.604284362792969
74736,-0.7837701416015626,8.78777572631836,1.565294952392578
74803,-0.0041912841796875,10.694061584472657,1.9808308410644533
74871,0.3323089599609375,11.610156555175783,3.0219158935546875
74941,-1.2070898437500002,5.657634887695313,-1.2555889892578125
75003,1.0204280090332032,7.47530502319336,2.379451904296875
75070,1.6191828918457032,13.167068939208985,1.872755584716797
75137,-0.39158569335937504,9.861642608642578,3.1210098266601562
75203,0.23261627197265627,11.070678405761718,-0.41763153076171877
75271,1.4389576721191406,9.318721618652344,-1.063238983154297
75337,0.4505630493164063,13.2157177734375,2.4474105834960938
75403,0.6316864013671876,9.496551818847657,2.4525
75471,-0.8580157470703126,10.51218978881836,0.6499484252929688
75537,-1.4639556884765625,9.571545867919923,1.6160394287109376
75603,-0.47062133789062505,8.244854736328126,1.0681787109375
75671,0.7542814636230469,11.634106750488282,0.705333251953125
75737,-0.0005987548828125,9.782157897949219,1.334175567626953
75803,1.4684463500976563,9.397008819580078,0.24758514404296877
75871,0.7884104919433594,10.208770751953125,2.987786865234375
75937,0.6084846496582031,9.941726074218751,2.7393035888671875
76003,1.0321037292480468,10.340047760009766,3.2852183532714845
76071,0.4884342956542969,10.020462341308594,3.780388641357422
76137,0.34099090576171875,8.268655242919923,0.8283773803710938
76203,-1.055006103515625,7.749684448242188,1.4211447143554687
76271,0.9981243896484375,7.2319111633300786,1.2385244750976563
76337,0.7798782348632813,6.9341802978515625,1.4103671264648439
76403,1.157842254638672,10.704390106201172,5.008883972167969
76471,0.7110214233398438,9.884994049072267,3.243754577636719
76537,0.5617817687988281,10.559790802001954,3.4985247802734376
76603,-0.028590545654296876,11.912976837158205,1.9209553527832033
76671,-0.39248382568359375,7.011120300292969,1.2283456420898438
76737,1.1554472351074219,7.467072143554688,3.676055603027344
76803,1.2796888732910157,7.000492401123047,1.0826985168457033
76871,1.5441888427734376,11.316766662597656,1.8676661682128908
76937,-1.13763427734375,11.070079650878906,0.6584806823730469
77003,-0.03787124633789063,11.264525299072266,3.8323306274414066
77071,1.4259347534179687,1.5010784912109376,-0.4117936706542969
77137,2.286046142578125,6.797065429687501,2.0151095581054688
77203,3.8431082153320313,10.50021469116211,1.8079403686523439
77271,-1.932631072998047,12.290791168212891,5.624104614257813
77337,1.015338592529297,9.778565368652345,2.885848846435547
77403,-0.20193008422851563,9.878856811523438,2.343227233886719
77471,0.5909710693359376,11.903097381591797,2.992427215576172
77536,0.8720864868164063,8.863518218994141,3.090623016357422
77603,1.1150312805175782,5.855074310302735,2.810555419921875
77671,0.5749543762207031,12.374916229248047,4.011957092285156
77737,-0.19893630981445312,10.415341186523438,3.896247711181641
77803,-0.7283853149414062,13.141023101806642,1.931283874511719
77871,-0.9966275024414063,9.339678039550781,4.080514526367188
77937,-0.5312452697753907,6.570436706542969,1.325493621826172
78003,0.3309617614746094,12.517868957519532,2.156266021728516
78071,1.5293696594238282,9.013206939697266,2.1736299133300783
78137,3.876339111328125,11.616742858886719,4.3924658203125
78203,0.36314483642578127,9.907297668457032,2.4914190673828127
78271,3.7282969665527346,12.323572998046876,3.0928683471679688
78337,0.1375639343261719,9.655670928955079,5.668262786865235
78403,-1.3883628845214844,7.187154235839844,2.852168884277344
78471,0.3683839416503906,8.487799530029298,-0.4441264343261719
78537,0.34338592529296874,13.427078247070312,2.5866210937500003
78603,-0.5924679565429688,8.12585220336914,1.9323316955566407
78671,1.696721649169922,8.377478942871095,1.1036549377441407
78737,0.8181985473632812,9.184450836181641,1.983076171875
78803,-1.1186238098144532,8.250991973876953,1.3888119506835939
78871,1.6226257324218751,9.150172119140626,1.49209716796875
78937,2.0589683532714846,12.868739318847657,4.717889099121094
79003,1.1359877014160156,10.899434509277345,5.801336059570313
79071,0.40191421508789066,9.60687240600586,6.402485961914063
79137,1.7286053466796876,11.169622650146485,-0.7653584289550782
79203,1.6911831665039063,10.095606079101563,-0.21465362548828126
79271,0.5192701721191406,10.594219207763672,1.4545252990722657
79337,-0.219144287109375,9.00856658935547,2.9617410278320313
79403,0.2832110595703125,9.502389678955078,3.5366954040527347
79471,0.25387207031250003,9.660311279296875,3.351680145263672
79537,0.5828878784179687,7.482939147949219,1.5274237060546876
79603,-0.44068359375000005,9.08565628051758,2.694995727539063
79671,0.2927911376953125,8.364605712890626,2.7526258850097656
79737,0.6173162841796875,10.158475341796876,2.602188720703125
79803,0.5010081481933594,10.036628723144531,2.6265879821777345
79871,-0.18516494750976564,8.164471893310548,2.6102719116210937
79943,-0.057779846191406255,5.020260314941407,-0.1722917175292969
80003,0.5084925842285156,9.90624984741211,0.6400689697265626
80071,-0.8544232177734375,9.351353759765626,3.1693592834472657
80137,0.3305126953125,6.810387725830078,2.871778106689453
80203,0.5501060485839844,11.095975799560547,2.9894334411621095
80271,1.648821258544922,9.128467254638672,0.5342390441894531
80337,1.2250524902343751,9.581874389648439,3.1623239135742187
80403,2.1347108459472657,11.722722473144533,1.31965576171875
80471,1.6420852661132814,10.807825012207031,4.9846343994140625
80537,2.248623962402344,9.50298843383789,1.956581268310547
80603,2.1903950500488283,9.051527252197266,1.7190252685546876
80671,2.7640022277832035,7.542814636230469,1.9851718139648438
80737,1.5031741333007813,6.203998718261719,1.6283139038085939
80803,2.8373497009277346,8.271199951171875,4.078568572998047
80871,1.661844177246094,7.810009002685547,3.3314721679687502
80937,3.3233889770507816,10.699749755859376,4.254452819824219
81003,2.271376647949219,6.248755645751953,1.8300942993164064
81071,3.466790771484375,8.121810607910156,2.9092002868652345
81137,2.308649139404297,8.44528793334961,1.0225236511230469
81203,1.9504440307617188,11.88169189453125,4.1002734375
81271,3.955524444580078,13.857732696533203,4.329895935058594
81337,4.214336242675781,10.304421844482423,5.304070129394532
81403,3.682043151855469,11.836036834716797,6.227499847412109
81471,2.5210574340820315,9.301357727050782,4.24636962890625
81537,1.470392303466797,10.853330383300781,4.886737976074219
81603,2.8928842163085937,8.239166564941407,2.614912261962891
81671,1.7675244140625002,11.082803192138673,3.51349365234375
81737,2.6828709411621094,8.413553924560548,2.498604125976563
81803,-0.6695576477050782,8.101303253173828,1.8422190856933596
81871,3.8016444396972657,7.631729736328126,2.978206787109375
81937,3.942950592041016,6.9148704528808596,6.706204376220703
82003,2.488125915527344,6.8707122802734375,5.7630157470703125
82071,2.659369812011719,7.875123596191407,2.499202880859375
82137,4.379891967773438,8.808432769775392,3.2718960571289064
82203,4.303999786376953,13.202994232177735,5.787115631103516
82271,4.125720520019532,8.10803924560547,0.5447172546386719
82337,1.8711090087890625,8.85438720703125,2.7135571289062503
82403,1.110091552734375,9.538015594482422,1.8875747680664063
82471,3.318000183105469,6.782395935058594,1.9059864807128908
82537,1.1557466125488283,10.55679702758789,3.2477961730957032
82603,3.0385313415527344,8.721164245605468,2.548899536132813
82671,3.360062713623047,6.458020477294922,-0.16600479125976564
82737,3.8456529235839847,10.652148742675783,3.489693145751953
82803,4.766687622070313,8.764424285888673,3.3438963317871098
82871,2.9327014160156253,9.704469451904297,5.055586853027344
82937,3.7118312072753907,7.850125579833985,1.9235000610351562
83003,4.182602233886719,8.383616180419923,2.7536737060546876
83071,4.738695831298829,10.159523162841797,2.398761749267578
83137,1.5910414123535157,8.139473876953126,4.605772247314453
83203,2.984344024658203,4.458029479980469,0.3291654968261719
83271,2.4351361083984377,7.210056610107422,1.5283218383789063
83337,1.4609619140625,6.725214843750001,0.9560618591308594
83403,4.342320098876954,11.810440063476562,4.053271179199219
83471,3.6582426452636723,14.918426971435547,3.6479141235351564
83537,0.2279759216308594,8.070617065429689,5.566624145507813
83603,5.344785461425782,5.6326368713378905,-3.2823742675781253
83671,3.271446990966797,8.994495849609375,4.359085235595703
83737,1.3564791870117188,6.673721923828126,3.838916931152344
83803,4.098327484130859,8.96171401977539,4.998555450439453
83871,2.5902136230468753,8.651858367919923,2.998265075683594
83937,2.2903871154785156,12.312046966552735,4.369413757324219
84003,3.464395751953125,9.940528564453125,-0.9916877746582031
84071,1.039288787841797,10.406509552001953,4.917274475097656
84137,2.7943890380859377,13.379626922607423,5.462141418457032
84203,3.366050262451172,10.782228240966797,4.054319000244141
84271,3.2048355102539063,10.735525360107422,4.034410400390625
84337,2.9080027770996093,12.82053955078125,4.0794667053222655
84403,2.502346343994141,8.043822784423828,4.638853454589844
84471,2.641407165527344,6.995103607177735,0.1095721435546875
84537,4.113146667480469,11.08459945678711,2.416275329589844
84603,1.6372952270507812,7.620652770996094,1.1005114746093752
84671,1.123114471435547,10.401420135498048,0.8604107666015626
84737,1.043031005859375,6.726112976074219,0.9068142700195313
84803,1.5262261962890626,7.806865539550782,1.59747802734375
84871,2.1875509643554687,8.399183807373047,1.4256353759765625
84942,3.300935668945313,10.062524871826172,2.2466780090332032
85003,3.1748977661132813,7.494315490722657,0.34143997192382813
85071,2.3640339660644534,9.68441116333008,1.5090119934082031
85137,5.459147644042969,13.88198226928711,4.442611541748047
85203,3.343447265625,8.55261474609375,3.0778994750976563
85271,3.8546342468261723,10.429411926269532,4.376748504638672
85337,3.7303926086425783,11.000474395751954,2.715802459716797
85403,2.865042114257813,6.753805389404297,4.167184295654297
85471,1.7860858154296877,8.099057922363281,0.4483177185058594
85537,2.114652557373047,9.596094818115235,0.6530918884277344
85603,2.1082159423828126,7.581883392333984,4.348756713867187
85671,1.8309924316406252,9.955347747802735,3.615132293701172
85737,2.6780809020996097,8.485254821777344,1.6042140197753907
85803,2.861000518798828,8.472082214355469,2.0901036071777344
85871,2.8217820739746093,11.173813934326173,3.4311648559570314
85937,1.915865936279297,7.667804718017578,1.8690133666992188
86003,4.221221923828125,10.677745513916015,3.1834300231933597
86071,4.683760070800782,10.267598419189454,1.565145263671875
86137,3.962110748291016,11.504176940917969,4.384382629394532
86203,4.381388854980469,9.631271667480469,3.689228210449219
86271,3.644022216796875,7.782166900634766,3.9450462341308596
86337,4.396357727050781,8.454868011474609,1.7835411071777345
86403,3.3555720520019534,8.886270904541016,2.641257476806641
86471,4.793481903076172,8.273145904541016,2.556533660888672
86537,2.488574981689453,9.541009368896486,3.3578173828125
86603,5.014272766113281,8.795709228515625,2.6400599670410156
86671,3.510649566650391,8.476123809814453,2.647694091796875
86737,3.413651275634766,8.243507537841797,3.5149905395507814
86803,4.385131072998047,9.225615234375,3.071013793945313
86871,3.5125955200195316,11.080557861328126,3.6818934631347657
86937,3.6836897277832032,10.192754058837892,3.186573486328125
87003,3.306474151611328,9.17966079711914,2.425855407714844
87071,3.6073484802246094,10.103689270019531,2.288441162109375
87137,3.6711158752441406,11.467652893066408,2.827170867919922
87203,2.408341827392578,11.66135009765625,3.057990875244141
87271,2.245181121826172,11.184890899658203,1.7503102111816407
87337,1.9555334472656252,12.053983612060547,1.9233503723144532
87404,0.3243754577636719,6.079308013916016,0.5313949584960938
87471,0.8602610778808594,8.859027557373047,2.182162170410156
87537,-0.5562432861328125,8.254434814453125,1.8244061279296875
87603,0.920735321044922,8.785081329345704,1.8702108764648437
87671,-0.24339385986328127,8.267457733154297,1.2025991821289064
87737,1.487157440185547,8.182135162353516,1.9489471435546877
87803,2.0612136840820314,11.655661926269532,3.4618510437011722
87871,1.1334429931640626,10.99748062133789,3.285817108154297
87937,2.6530828857421875,6.972051544189453,-1.4665003967285157
88003,2.0166064453125,9.45643524169922,-1.2966036987304688
88071,0.1586700439453125,8.630452880859375,1.635648651123047
88137,3.7079393005371095,14.800621948242188,7.103627929687501
88203,2.7669960021972657,5.818400573730469,1.9455043029785157
88271,3.393293609619141,11.323352966308594,1.5530204772949219
88337,3.024759979248047,7.771389312744141,-0.9910890197753907
88403,3.3127610778808596,10.274783477783204,0.6259982299804688
88471,1.5572117614746095,4.629273376464844,0.05194198608398438
88537,3.3392559814453127,10.957064666748048,-1.9956500244140627
88603,2.079775085449219,14.353052673339844,1.1581416320800781
88671,0.7423063659667969,8.10803924560547,3.5190321350097657
88737,2.8472291564941408,7.241191864013672,1.385518798828125
88803,0.9527687072753906,12.491823120117187,1.867965545654297
88871,1.31965576171875,12.988939361572266,-0.8258326721191407
88937,0.5459147644042969,10.294841766357422,2.8232789611816407
89003,0.4004173278808594,9.422306213378906,1.8314414978027345
89071,0.8449928283691407,10.611732788085938,1.046473846435547
89137,0.7536827087402345,11.217073974609375,2.888243865966797
89203,0.7824229431152344,12.290641479492189,2.898722076416016
89271,2.160157928466797,14.849719848632814,4.317621459960938
89337,1.086141357421875,8.17225570678711,1.3034893798828127
89403,1.1849359130859376,10.152188415527345,2.442919921875
89471,1.08973388671875,12.957205352783204,3.2913555908203125
89537,1.292113037109375,8.127049713134767,3.1593301391601565
89603,0.609532470703125,12.921729125976563,4.6008325195312505
89671,-0.7553292846679688,6.389762420654297,1.6648379516601564
89737,-0.001197509765625,7.242239685058594,-0.6277944946289062
89803,0.408350830078125,9.679471435546876,1.1448193359375
89871,0.18007553100585938,11.263178100585938,4.518803100585938
89941,1.0319540405273437,12.642409973144533,3.796255645751953
90003,1.538800048828125,11.447594604492188,1.8971548461914063
90071,1.5067666625976563,11.905791778564454,1.8455122375488282
90137,-0.183218994140625,8.025111694335937,1.046473846435547
90203,-0.14415023803710938,7.063661041259766,0.01107696533203125
90271,0.29054580688476567,8.944948883056641,0.9467811584472656
90337,0.20911514282226565,8.784632263183594,1.191522216796875
90403,0.47675857543945316,10.629695434570314,2.1448896789550784
90471,0.5278024291992188,11.248957672119142,2.821482696533203
90537,1.503922576904297,9.834249572753906,1.598675537109375
90604,1.1020083618164063,11.126362609863282,1.6519647216796876
90671,0.030237121582031252,10.367141418457031,1.8327886962890625
90737,0.09714797973632813,8.433163146972657,1.0493179321289063
90804,0.7771838378906251,10.426268463134766,2.206561431884766
90871,1.0678793334960939,10.50979476928711,2.120640106201172
90937,-0.2817141723632813,10.141710205078125,1.8814375305175781
91003,0.9261241149902344,9.279203796386719,2.8265721130371095
91071,-0.4135899353027344,9.732610931396485,1.4437477111816408
91137,0.9294172668457031,10.3704345703125,1.4566209411621094
91203,-0.18935623168945315,9.4124267578125,0.9683363342285157
91271,0.6132746887207031,8.302484893798828,2.437980194091797
91337,0.33141082763671875,9.809700622558594,1.756746826171875
91404,1.5929873657226563,9.814340972900391,2.071542205810547
91471,0.7512876892089844,11.117381286621095,4.034410400390625
91537,-0.3107537841796875,6.14367416381836,2.273023223876953
91603,0.5504054260253907,8.289012908935547,-0.8469387817382813
91671,-1.579365692138672,10.613229675292969,-2.3215223693847657
91737,0.47301635742187503,8.676856384277345,2.8946804809570312
91803,0.16031661987304688,8.282127227783203,5.091661834716797
91871,-0.508941650390625,9.873018951416016,2.694247283935547
91937,0.38170623779296875,10.13332763671875,1.6576528930664063
92003,2.33993408203125,10.210117950439454,0.3153941345214844
92071,0.0640667724609375,9.5465478515625,2.616259460449219
92137,1.0585986328125,9.846224670410157,3.515589294433594
92203,-0.1598675537109375,12.153077545166017,3.6280055236816406
92271,2.6530828857421875,12.763807525634766,3.6326458740234377
92337,-0.7854167175292969,11.363619232177735,4.702620849609375
92404,-1.364113311767578,11.032058715820312,3.5651362609863284
92471,1.1467652893066407,8.237220611572265,-0.9665400695800782
92537,-2.4700135803222656,9.24806854248047,1.447489929199219
92603,1.580712890625,8.208480377197265,7.762857055664063
92671,3.2825239562988284,11.95967971801758,7.1515283203125
92737,1.6958235168457032,5.396278381347656,1.3781840515136718
92803,-2.084864501953125,5.229225769042969,-1.2765454101562501
92871,1.0283615112304687,9.149124298095703,0.09190887451171875
92937,1.391356658935547,7.0856652832031255,0.8111631774902344
93003,1.0458750915527344,9.009764099121094,2.410437469482422
93070,1.5829582214355469,7.313341827392579,0.9717791748046876
93137,0.384400634765625,9.664652252197266,2.9422814941406252
93203,0.7972421264648438,8.458161163330079,2.993924102783203
93271,0.28635452270507816,10.615325317382814,2.378553771972656
93337,-0.15956817626953126,10.033335571289063,2.382595367431641
93404,-0.7213499450683594,8.609945526123047,2.8729756164550784
93471,-1.2892689514160156,9.216334533691407,3.7582347106933596
93537,0.26659561157226563,10.65065185546875,2.3261627197265624
93603,0.8635542297363281,10.515932006835937,1.818867645263672
93671,0.8291258239746094,8.91710678100586,1.0738668823242188
93737,0.9565109252929688,9.600884857177736,1.9452049255371096
93803,1.4230906677246093,10.519075469970703,3.6583923339843754
93871,0.4125421142578125,8.669671325683595,4.566853179931641
93937,0.6875202941894532,10.961106262207032,3.4386492919921876
94003,0.8702902221679688,10.177336120605469,3.173550567626953
94071,-0.10732681274414063,8.507109375,2.368524627685547
94137,-0.5010081481933594,11.351195068359376,2.8789631652832033
94203,0.6138734436035157,5.579497375488281,2.1071681213378906
94271,0.22378463745117189,8.449179840087892,1.152902526855469
94337,-0.16540603637695314,8.8280419921875,-0.1778302001953125
94403,1.4786251831054689,7.2669383239746095,-0.8017327880859375
94471,-1.0758128356933594,7.924371185302735,1.961371307373047
94537,-1.481169891357422,12.472213897705078,3.632795562744141
94603,0.59156982421875,9.703870697021484,5.344935150146485
94671,0.42242156982421875,9.060957641601563,4.5867617797851565
94737,-0.9249266052246095,6.789431304931641,2.415227508544922
94803,1.119521942138672,10.075398101806641,1.3569282531738283
94871,-0.10044113159179688,10.822195129394531,2.271376647949219
94942,0.7593708801269532,9.875863037109376,1.4218931579589844
95003,0.7444020080566407,8.48510513305664,0.9294172668457031
95071,0.20357666015625,10.256521453857422,2.3796015930175782
95137,-0.26375152587890627,10.956914978027344,2.9572503662109377
95203,-1.6587007141113281,4.416116638183594,0.5096900939941407
95271,-0.6248007202148438,9.871671752929688,1.5034735107421875
95337,1.9501446533203126,11.76957504272461,2.288441162109375
95403,1.3717474365234377,8.326584777832032,3.1079869079589844
95471,1.287472686767578,7.258406066894532,3.428320770263672
95537,1.569785614013672,6.653963012695312,1.7286053466796876
95603,1.3239967346191408,8.834328918457032,0.8487350463867188
95671,2.162403259277344,11.88932601928711,2.741099853515625
95737,1.2326866149902345,6.7334477233886725,2.2546115112304688
95803,-0.1429527282714844,5.449866943359376,3.0087432861328125
95871,0.36658767700195316,8.503516845703125,-1.2493020629882814
95937,0.17214202880859375,8.080945587158203,0.4992118835449219
96003,1.9917581176757813,12.519365844726563,2.78061767578125
96071,-1.137484588623047,4.6111610412597654,1.139729919433594
96137,0.013621673583984376,6.661746826171876,-7.507188720703126
96203,1.0053094482421876,9.850116577148437,-1.472787322998047
96271,3.6432737731933598,16.270864562988283,5.452112274169922
96337,0.6222560119628907,7.928861846923828,15.84829330444336
96404,0.6063890075683595,4.908742218017578,-0.8536747741699219
96471,0.020357666015625,11.272458801269531,-0.2537223815917969
96537,0.6004014587402344,7.602690124511719,2.331701202392578
96603,0.7083270263671876,10.023456115722658,0.9894424438476563
96671,0.6768923950195312,10.25592269897461,2.176773376464844
96737,-0.25297393798828127,9.409133605957031,3.2398626708984377
96803,1.2481045532226562,9.531279602050782,3.6046540832519534
96871,-0.841699676513672,9.179211730957032,1.2316387939453126
96937,-0.6448590087890625,9.314380645751953,2.370919647216797
97003,-0.06691085815429688,8.490643615722657,2.0134629821777343
97071,1.0141410827636719,8.746311950683594,4.5797264099121096
97137,1.8133291625976564,9.617799682617187,3.835773468017578
97204,0.7497908020019531,9.285640411376953,1.858385467529297
97271,0.34712814331054687,9.096134490966797,1.9035914611816407
97337,1.8962567138671875,7.151378631591797,0.8812174987792969
97403,1.669178924560547,10.15338592529297,1.5968792724609375
97471,0.24204666137695313,11.766281890869141,1.8934126281738282
97537,0.8352630615234375,12.700489196777344,6.5626528930664065
97603,-0.8065228271484376,9.333091735839844,2.917283477783203
97671,2.2734722900390625,11.826307067871094,1.3251942443847657
97737,-1.7244140625000002,7.594157867431641,1.4301260375976563
97803,-1.5018269348144533,5.37966293334961,2.0511845397949218
97871,0.41882904052734377,7.638914794921876,2.3179298400878907
97937,-1.1332933044433595,6.419849853515625,-0.27991790771484376
98003,1.7208215332031251,10.756332092285156,0.00508941650390625
98071,1.84656005859375,10.187664642333985,0.6695576477050782
98137,0.48633865356445316,12.294234008789063,6.837930450439454
98203,-2.084714813232422,11.061098327636719,5.626799011230469
98271,1.5404466247558595,6.471492462158204,-2.7653494262695313
98337,1.1765533447265626,9.384884033203125,-1.000968475341797
98404,-0.02544708251953125,7.05812255859375,4.757706298828126
98471,0.8300239562988282,10.632838897705078,4.284540252685547
98537,-0.21031265258789064,9.21798110961914,3.211272125244141
98603,-0.622705078125,10.093211059570313,3.6013609313964845
98671,1.1166778564453126,14.088702392578126,4.045337677001953
98737,1.8842816162109377,8.711434478759767,1.1225157165527344
98803,0.10014175415039063,7.919281768798829,1.77470947265625
98871,-1.5461347961425782,10.601703643798828,2.0398081970214843
98937,1.6813037109375002,9.639205169677735,3.7691619873046878
99003,1.229543151855469,9.617949371337891,2.748135223388672
99071,0.6204597473144532,11.007210388183594,4.006418609619141
99137,1.387913818359375,7.030729522705078,1.8101856994628907
99203,0.8875044250488282,7.72438705444336,4.681365051269531
99271,0.025896148681640627,7.747738494873047,1.7712666320800783
99337,0.4954696655273438,11.762090606689453,3.612737274169922
99403,1.2031979370117187,7.637118530273438,1.7777032470703127
99471,-0.4785548400878907,8.378826141357422,1.1740086364746094
99537,1.2302915954589844,5.539231109619141,1.2470567321777344
99604,-0.7295828247070313,7.244784393310547,1.0376422119140625
99671,0.5161267089843751,9.751621398925781,3.694167938232422
99737,-0.38455032348632817,9.188941497802736,3.5847454833984376
99803,0.7613168334960938,8.650062103271484,1.9294876098632814
99871,1.3633648681640627,9.544901275634766,2.770738220214844
99943,0.4263134765625,9.533973999023438,4.074077911376953
100003,1.4226416015625,11.685150604248047,3.043920135498047
100071,1.242865447998047,8.129744110107422,1.32923583984375
100137,0.32302825927734374,10.065518646240236,2.6313780212402347
100203,0.13127700805664064,7.959548034667969,2.551743621826172
100271,-0.20058288574218752,9.313033447265626,2.162253570556641
100337,0.2986289978027344,8.946595458984376,1.9884649658203126
100403,-0.10298583984375001,10.391989746093751,2.620001678466797
100471,0.896785125732422,11.072025604248047,3.5380426025390626
100537,1.0551557922363282,8.30398178100586,3.2468980407714847
100603,-0.3261717224121094,7.201374664306641,3.925287322998047
100671,-0.2938389587402344,10.851234741210938,2.7857070922851563
100737,1.3353730773925783,11.47648452758789,2.5225543212890624
100804,1.4763798522949219,10.406060485839845,1.2472064208984375
100871,0.8238867187500001,10.296488342285157,2.794688415527344
100937,0.21420455932617188,10.131531372070313,2.9389883422851564
101003,0.3396437072753906,7.560777282714844,4.210893402099609
101071,1.0662327575683594,7.3039114379882815,1.4221925354003906
101137,-0.41568557739257816,9.327403564453126,2.5168661499023437
101203,0.8830137634277344,7.739056549072266,1.7227674865722657
101271,-0.4602928161621094,10.10069549560547,2.6538313293457034
101337,0.16031661987304688,10.594368896484376,2.7063720703125003
101403,-0.24893234252929688,10.771750030517579,4.167034606933594
101471,0.8523275756835937,7.789651336669922,3.281027069091797
101537,0.5306465148925782,10.173444213867189,2.398612060546875
101603,1.8339862060546877,8.00505340576172,2.3311024475097657
101671,1.2216096496582032,10.379116516113282,1.4970368957519533
101737,1.9742445373535158,11.62632293701172,3.885619812011719
101803,1.85614013671875,9.590256958007814,1.6437318420410156
101871,0.30296997070312504,10.048603820800782,2.9023146057128906
101937,0.3656895446777344,7.655230865478516,1.7163308715820313
102003,0.8945397949218751,7.4395294189453125,1.3838722229003908
102071,0.39787261962890624,10.546917572021485,3.1151719665527344
102137,0.34173934936523437,9.565258941650391,1.9543359375
102204,0.7045848083496095,8.889863433837892,1.7437239074707032
102271,0.6712042236328125,8.908275146484375,2.8110044860839847
102337,1.4801220703125,11.517798614501954,4.450095977783203
102404,0.346080322265625,10.560838623046875,5.2224897766113285
102471,-0.6954537963867188,9.534872131347656,4.574786682128907
102537,-0.49786468505859377,6.023174743652344,1.1799961853027345
102603,0.29114456176757814,7.108268280029297,-0.3480262756347656
102671,-0.1681004333496094,11.398496704101563,4.338577880859376
102737,2.572400665283203,12.081676025390626,0.2721340942382813
102804,2.2767654418945313,12.799583129882814,6.151308288574219
102871,-1.8747015380859375,8.600664825439454,2.921624450683594
102938,-0.961600341796875,9.778116302490234,3.9872584533691406
103003,1.0473719787597657,9.940528564453125,1.7377363586425782
103071,0.8831634521484375,9.955647125244141,1.6131953430175783
103138,-0.4182302856445313,11.271560668945312,3.3486863708496095
103203,-0.18935623168945315,10.97876953125,3.9318736267089847
103271,0.67300048828125,9.441765747070313,2.6878106689453127
103337,0.8515791320800782,10.337503051757812,2.891537017822266
103403,0.5236111450195313,9.34342025756836,1.8865269470214845
103471,1.058448944091797,8.672964477539063,1.945953369140625
103537,0.40850051879882815,9.611363067626954,2.2742207336425784
103603,0.6809339904785157,9.44880111694336,2.6541307067871096
103671,0.822689208984375,9.161548461914062,2.6670039367675784
103737,0.724493408203125,10.060728607177735,2.2255718994140627
103803,0.6979985046386719,10.050250396728517,2.352507934570313
103871,0.79275146484375,9.304052124023437,2.3682252502441408
103937,0.6468049621582032,8.609795837402345,1.7318984985351564
104003,0.8382568359375,9.46646438598633,1.5929873657226563
104071,0.16989669799804688,7.097191314697266,0.336500244140625
104137,1.6346008300781252,11.039842529296875,1.8616786193847656
104204,0.49367340087890627,11.179202728271484,2.125280456542969
104271,-0.37601806640625,7.7124119567871094,4.603077850341797
104337,0.5417234802246094,9.977801055908204,3.3187486267089845
104404,0.5385800170898438,10.458002471923828,3.3326696777343754
104471,1.0141410827636719,10.107581176757813,2.5773403930664065
104537,1.0159373474121094,8.84525619506836,1.1240126037597657
104603,0.27842102050781253,9.898915100097657,2.5821304321289062
104671,0.863404541015625,7.7407031250000005,1.6121475219726564
104737,1.0440788269042969,9.577832794189453,2.419867858886719
104803,0.540076904296875,8.518036651611329,1.6982185363769533
104871,0.7619155883789063,8.83283203125,2.558030548095703
104939,0.9521699523925782,10.084678802490235,2.6963429260253906
105004,1.4778767395019532,11.210936737060548,3.892954559326172
105071,0.5403762817382812,9.745484161376954,2.4962091064453125
105137,1.1749067687988282,10.720406799316407,-0.8840615844726563
105204,-0.4888833618164063,10.378667449951172,1.069226531982422
105271,0.46373565673828127,10.328970794677735,2.7199937438964845
105337,1.0569520568847657,10.31011001586914,0.45385620117187503
105403,0.8696914672851563,8.359815673828125,0.6231541442871094
105471,0.9286688232421876,9.536069641113281,3.7285963439941407
105537,0.8524772644042969,9.375154266357422,3.359913024902344
105604,0.1478924560546875,9.589209136962891,3.4727783203125
105671,0.3261717224121094,9.685758361816406,2.0338206481933594
105737,1.0150392150878906,8.590635681152344,2.039059753417969
105804,1.0204280090332032,9.877060546875,2.2936802673339844
105871,-0.22423370361328127,9.286538543701173,0.9134005737304688
105937,-1.3750405883789063,8.93866195678711,0.9562115478515626
106003,0.2808160400390625,9.57768310546875,2.3339465332031253
106071,0.9593550109863281,6.400839385986329,2.1142034912109375
106137,0.21704864501953125,9.425150299072266,3.6277061462402345
106204,0.978365478515625,7.158414001464844,4.325854339599609
106271,0.5075944519042969,9.861343231201172,3.3832644653320316
106337,0.7854167175292969,9.938133544921875,3.673660583496094
106404,-0.017064514160156252,7.762407989501954,1.1389814758300782
106471,0.9984237670898438,9.81673599243164,2.501897277832031
106537,1.0193801879882813,9.346414031982423,2.78540771484375
106604,0.7418572998046875,10.308313751220703,2.984793090820313
106671,0.25387207031250003,9.95699432373047,1.188977508544922
106737,0.20642074584960937,9.16573974609375,2.0450473022460938
106803,1.2331356811523437,8.409512329101563,2.90515869140625
106871,-0.42227188110351566,10.353968811035157,1.004860382080078
106937,0.8208929443359375,12.265493774414063,1.7690213012695313
107003,0.4746629333496094,11.500734100341797,0.9005273437500001
107071,1.622476043701172,14.131663055419923,0.30731094360351563
107137,1.6414865112304688,5.582191772460938,2.8277696228027347
107203,0.5785469055175781,7.8570112609863285,1.581910400390625
107271,0.3273692321777344,7.7812687683105475,1.7702188110351564
107337,0.5363346862792969,9.527537384033204,3.190166015625
107404,0.29713211059570316,8.803942108154297,2.542462921142578
107471,0.20492385864257814,10.902877349853517,2.456092529296875
107537,1.743424530029297,9.41377395629883,2.8035200500488284
107603,-0.16660354614257813,10.667566680908203,3.516786804199219
107671,0.5517526245117188,7.159162445068359,0.5108876037597656
107737,0.16959732055664065,9.180858306884765,2.69918701171875
107804,0.7828720092773438,9.435329132080078,1.4166540527343752
107871,1.4763798522949219,10.382559356689454,2.0591180419921877
107937,0.3896397399902344,11.638896789550781,3.161276092529297
108004,1.1469149780273438,7.7454931640625,1.2500505065917968
108071,-0.32302825927734374,9.642498321533203,1.716929626464844
108137,-0.0293389892578125,9.30270492553711,1.3733940124511719
108203,0.662222900390625,8.89270751953125,1.2913645935058595
108271,-0.33260833740234375,9.530381469726564,2.8937823486328127
108337,1.137484588623047,8.155640258789063,1.9963984680175781
108403,0.9138496398925782,10.183024291992188,2.05253173828125
108471,0.5960604858398438,9.627080383300783,1.7160314941406252
108538,0.9849517822265625,8.94539794921875,1.7595909118652344
108603,-0.007933502197265626,12.282857666015625,2.3743624877929688
108671,2.208058319091797,9.962682495117187,3.7558396911621097
108738,0.7909552001953125,5.664819946289063,0.8918453979492188
108803,0.6010002136230469,8.252339172363282,0.0520916748046875
108871,4.4247985839843755,6.370452575683594,-0.25626708984375
108937,0.21899459838867188,7.505242767333985,1.374591522216797
109003,0.9069639587402344,8.007448425292969,0.7765850830078126
109071,0.7092251586914062,12.081975402832033,3.2455508422851564
109137,-1.5536192321777345,10.003846893310547,3.306923217773438
109204,-1.5606546020507814,6.846313018798829,0.5427713012695313
109271,1.2591815185546875,13.340258789062501,1.3726455688476564
109337,1.2151730346679688,12.77982421875,6.0881396484375
109403,0.060474243164062504,8.425828399658204,5.680537261962891
109471,1.3163626098632812,6.681056671142579,-0.9430389404296875
109537,1.3868659973144533,13.679603118896486,0.3266207885742188
109603,0.6827302551269532,8.881031799316407,1.4676979064941407
109671,-0.2471360778808594,8.949289855957032,3.0262568664550784
109737,0.8628057861328126,8.328530731201173,2.5830285644531252
109804,-0.43768981933593754,9.827812957763673,3.4410443115234375
109871,1.174607391357422,8.733289031982423,2.435585174560547
109938,1.7736616516113282,9.646390228271486,2.588567047119141
110003,0.9021739196777344,8.816216583251954,2.1977297973632814
110071,0.6364764404296875,8.35143310546875,2.588716735839844
110137,0.25102798461914066,8.707093505859376,2.5740472412109376
110204,0.2878514099121094,9.183702392578125,2.4803421020507814
110271,0.0101788330078125,9.141789550781251,2.8277696228027347
110337,0.19534378051757814,9.54415283203125,2.941233673095703
110404,0.025297393798828127,9.969418487548829,2.890489196777344
110471,-0.29338989257812503,9.648336181640625,2.435585174560547
110537,-0.20971389770507814,10.099048919677735,3.1558872985839845
110603,0.27542724609375,9.384734344482423,2.920426940917969
110671,-0.2327659606933594,9.492659912109376,2.6517356872558597
110738,0.8831634521484375,7.870782623291016,2.697690124511719
110804,0.8943901062011719,10.087522888183594,2.458188171386719
110871,0.7363188171386719,8.653504943847656,2.3056553649902347
110937,1.4244378662109376,8.972641296386719,2.3713687133789065
111003,1.064735870361328,7.930209045410157,2.580633544921875
111071,1.6232244873046875,9.264683990478517,2.851270751953125
111137,0.39472915649414064,8.014034729003907,1.7061520385742188
111203,1.7163308715820313,12.100387115478517,2.4093896484375
111271,-1.0660830688476564,8.511899414062501,3.0696665954589846
111338,0.6857240295410156,6.534062347412109,1.3093272399902345
111403,0.5206173706054688,7.14958236694336,2.2538630676269533
111471,3.0886770629882814,10.392588500976563,0.37661682128906254
111537,0.6632707214355469,7.327113189697266,0.8565188598632812
111604,1.359023895263672,8.147257690429688,2.6828709411621094
111671,2.605182495117188,10.21999740600586,5.119503936767578
111737,0.5382806396484375,9.026379547119141,4.398153991699219
111804,-0.28874954223632815,7.604336700439453,1.6522640991210937
111871,0.7631130981445313,8.925938415527344,2.3929238891601563
111937,1.7092955017089844,9.191336517333985,0.41164398193359375
112004,-0.07155120849609375,11.878997497558593,2.1284239196777346
112071,0.5291496276855469,10.419233093261719,4.375850372314454
112138,-0.35895355224609377,9.934091949462891,3.4407449340820313
112203,-0.41388931274414065,10.20562728881836,3.458258514404297
112271,1.6245716857910157,11.712393951416017,3.3596136474609377
112337,2.0854632568359377,9.974058837890626,2.009271697998047
112403,0.2528242492675781,9.449848937988282,2.1682411193847657
112471,-0.049846343994140625,7.048093414306641,1.2473561096191408
112537,0.9765692138671875,9.66390380859375,1.868115234375
112604,-0.279019775390625,9.012009429931641,0.8193960571289063
112671,0.22153930664062502,8.455915832519532,1.914668426513672
112737,0.2568658447265625,8.474327545166016,3.5892361450195316
112804,0.39996826171875,9.68979995727539,4.393064575195313
112871,1.077609100341797,8.700956268310547,1.693428497314453
112937,0.4303550720214844,11.771820373535157,3.090473327636719
113003,-0.1922003173828125,10.27792694091797,2.9846434020996093
113071,0.9249266052246095,8.953630828857422,3.014730834960938
113138,-0.0389190673828125,9.371861114501954,2.1740789794921875
113204,0.39787261962890624,8.848848724365235,1.4858102416992187
113271,0.3483256530761719,9.930798797607423,2.5644671630859377
113337,0.44697052001953125,10.23915756225586,2.848875732421875
113404,0.6143225097656251,7.883506164550782,2.320624237060547
113470,0.29683273315429687,8.630452880859375,1.9585272216796876
113538,0.44083328247070314,8.265960845947266,1.929038543701172
113604,0.7207511901855469,9.645342407226563,2.265838165283203
113671,0.45101211547851566,9.38174057006836,1.9700532531738282
113738,0.3489244079589844,10.355016632080078,2.555186462402344
113803,0.7110214233398438,8.479716339111329,1.7751585388183595
113871,0.6902146911621094,10.159074096679689,3.8217027282714846
113937,-0.6942562866210937,9.154513092041016,2.6158103942871094
114004,1.0832972717285156,9.087751922607422,0.5718109130859376
114071,-0.47690826416015625,5.105133819580078,0.03981719970703125
114137,1.2928614807128906,7.040758666992188,2.390079803466797
114204,0.8402027893066407,9.664502563476564,-0.9169931030273438
114271,-0.9096583557128907,14.299613800048828,1.6230747985839844
114337,0.6676116943359376,11.157198486328125,5.603896636962891
114404,2.2146446228027346,5.434898071289063,0.39847137451171877
114471,0.817749481201172,9.77976287841797,2.368973693847656
114537,0.39248382568359375,9.086853790283204,-0.8425978088378907
114603,0.10163864135742189,13.039085083007814,3.756588134765625
114671,0.5718109130859376,12.53313720703125,1.440454559326172
114737,0.49786468505859377,8.0616357421875,1.3549822998046877
114803,0.19504440307617188,9.345515899658203,1.766177215576172
114871,0.11226654052734375,8.010591888427735,2.188748474121094
114941,0.6557862854003906,8.40127944946289,3.0925689697265626
115003,0.21465362548828126,9.305249633789064,3.02490966796875
115071,0.6911128234863282,10.183323669433594,3.853287048339844
115137,0.061671752929687504,10.958411865234375,3.193608856201172
115203,0.6608757019042969,9.652677154541015,2.262994079589844
115271,-0.07274871826171875,10.220895538330078,1.7320481872558595
115337,0.4285588073730469,8.995094604492188,3.5759138488769535
115404,0.2124082946777344,10.169851684570313,3.5666331481933597
115471,0.8405021667480469,8.788973236083985,3.2986903381347656
115537,0.5977070617675782,9.152267761230469,3.163970489501953
115603,0.5102888488769531,9.292825469970703,2.7234365844726565
115671,0.7321275329589844,9.490863647460937,2.9880862426757813
115737,0.3219804382324219,11.845467224121094,5.433101806640625
115804,2.0371138000488282,8.227191467285156,4.591402130126953
115871,-0.31853759765625,11.087293853759766,5.035079498291016
115937,1.2187655639648438,9.909542999267579,1.26217529296875
116004,0.8146060180664063,9.45927932739258,1.6292120361328126
116071,-0.28410919189453127,8.881331176757813,-0.8810678100585938
116137,0.12439132690429688,12.098441162109376,1.8055453491210938
116204,0.5758525085449219,7.916437683105469,4.191733245849609
116271,-1.1050021362304687,8.133186950683594,4.188889160156251
116337,0.808319091796875,8.487649841308594,2.944377136230469
116404,1.415306854248047,8.454868011474609,2.0721409606933596
116471,1.6432827758789064,9.631121978759767,1.5780184936523438
116538,0.6447093200683595,8.665929107666017,2.162552947998047
116604,-0.043559417724609376,7.794890441894531,1.8269508361816407
116671,0.17139358520507814,9.514215087890625,2.7021807861328124
116738,0.5034031677246094,11.454330596923828,4.400698699951172
116803,0.7732919311523437,10.319390716552736,4.811893615722656
116871,0.7018904113769532,9.476194152832031,4.137246551513672
116937,0.45385620117187503,12.124636688232423,2.5897645568847656
117003,1.6094531250000002,14.285543060302736,4.3084904479980475
117071,-1.3545332336425782,7.530689849853516,5.516777801513673
117138,0.5228627014160157,13.821807403564454,4.195924530029297
117204,1.491947479248047,9.167536010742188,0.9283694458007813
117271,1.152902526855469,14.632671203613281,1.009351043701172
117337,-0.547261962890625,7.253765716552735,3.1470556640625
117404,1.249152374267578,7.983947296142579,2.8166926574707034
117471,1.308878173828125,12.008927307128907,1.7238153076171876
117537,0.3998185729980469,9.661059722900392,2.4745042419433596
117603,-0.30371841430664065,9.386231231689454,2.9897328186035157
117671,-0.5432203674316407,9.228609008789062,3.729943542480469
117737,0.11226654052734375,8.546926574707031,3.031495971679688
117804,1.0575508117675783,9.358688507080078,2.5592280578613282
117871,0.42302032470703127,10.666818237304689,3.763623504638672
117937,0.23740631103515628,7.144193572998047,3.896098022460938
118003,0.5195695495605469,10.060279541015625,2.7467880249023438
118071,-0.5700146484375,9.531429290771484,2.524200897216797
118137,0.7122189331054688,8.565637664794922,4.143234100341797
118203,0.7575746154785157,9.44490921020508,3.653302917480469
118271,0.027093658447265627,8.968150634765625,4.462220764160157
118337,1.6046630859375002,7.50883529663086,0.8704399108886719
118404,1.9634669494628907,10.40830581665039,3.2492930603027346
118471,0.9982740783691407,9.602830810546875,4.553830261230469
118537,0.439486083984375,7.081773376464844,1.0870394897460938
118604,-0.29877868652343753,10.521620178222657,1.6137940979003906
118671,1.194965057373047,8.013585662841797,1.5540682983398437
118738,0.22109024047851564,9.792037353515626,3.653153228759766
118803,1.2819342041015627,9.761351165771485,2.6361680603027344
118871,0.3043171691894531,10.745554504394532,3.48954345703125
118937,1.1198213195800781,9.570498046875,3.1042446899414062
119003,0.9026229858398438,8.468639373779297,4.219275970458985
119071,1.5968792724609375,9.845176849365235,3.5949243164062503
119137,0.3327580261230469,8.215515747070313,2.14354248046875
119204,1.08494384765625,8.493936767578125,2.7656488037109375
119271,2.2514680480957034,8.915609893798829,2.389181671142578
119337,-0.5797444152832032,9.00287841796875,2.7152037048339843
119403,0.3153941345214844,8.381071472167969,3.2554302978515626
119471,1.3335768127441407,8.168513488769532,1.0582992553710937
119537,0.2697390747070313,9.926158447265626,3.8577777099609376
119604,0.17139358520507814,8.53779556274414,2.9237200927734377
119671,0.1389111328125,8.236621856689453,2.6491909790039063
119737,1.1981085205078126,10.258617095947265,3.4275723266601563
119804,-0.25836273193359377,10.089019775390625,3.4313145446777344
119871,0.17753082275390625,9.348659362792969,3.5084042358398437
119943,-0.0101788330078125,9.688153381347657,2.701282653808594
120003,1.379231872558594,11.195369110107423,3.4148487854003906
120071,-0.04805007934570313,10.943592681884766,2.685565338134766
120138,0.7890092468261719,8.986562347412109,2.6601182556152345
120204,0.9460327148437501,9.290879516601564,2.255060577392578
120271,0.5426216125488281,9.510023803710938,2.8708799743652347
120338,0.944835205078125,7.707921295166016,2.505040740966797
120404,0.048648834228515625,7.907007293701172,2.2567071533203125
120471,0.5870791625976562,7.841892700195313,1.9691551208496094
120537,0.19384689331054689,8.591234436035156,2.552641754150391
120603,0.49337402343750003,10.162217559814454,1.8504519653320313
120671,0.5941145324707031,9.468560028076173,1.3033396911621093
120737,0.2579136657714844,9.519454193115235,1.3615686035156251
120804,1.2695100402832031,11.108250274658204,2.4399261474609375
120871,0.8852590942382813,11.3955029296875,2.6472450256347657
120938,1.0106982421875002,11.159743194580079,2.538571014404297
121003,0.3448828125,8.678952026367188,2.4096890258789063
121071,0.6765930175781251,8.527467041015626,2.550546112060547
121137,0.8199948120117188,8.575367431640625,2.4183709716796877
121204,0.44113265991210937,9.180259552001953,2.035467224121094
121271,0.4412823486328125,8.445886688232422,1.6660354614257813
121337,0.7340734863281251,7.915689239501954,1.6031661987304688
121404,0.9324110412597657,10.647508392333984,1.8573376464843752
121471,0.888402557373047,11.92764633178711,2.570754089355469
121537,0.49172744750976566,10.673554229736329,1.7489630126953126
121603,0.9198371887207032,10.377769317626953,1.9299366760253907
121671,0.02724334716796875,11.066786499023438,2.353106689453125
121737,0.17633331298828125,11.303444366455079,1.7066011047363283
121803,0.19085311889648438,11.04627914428711,1.4087205505371094
121871,0.41583526611328125,11.636801147460938,2.9220735168457033
121937,0.147293701171875,11.931388549804689,2.5628205871582033
122003,0.18711090087890625,11.085647277832031,2.2998175048828124
122071,0.4543052673339844,9.480235748291015,1.6447796630859375
122137,0.2724334716796875,10.824141082763672,2.3355931091308597
122204,0.42047561645507814,11.4625634765625,2.521805877685547
122271,0.771046600341797,9.526489562988282,2.6628126525878906
122337,0.3158432006835938,10.872191162109376,2.5462051391601563
122404,0.5046006774902344,10.745704193115236,2.5243505859375
122471,0.25881179809570315,10.171947326660156,2.9318032836914063
122537,0.7131170654296876,10.22763153076172,3.067570953369141
122603,0.13397140502929689,9.899364166259765,2.804418182373047
122671,0.2752775573730469,9.328002319335939,3.0859826660156253
122738,0.15298187255859375,10.343640289306641,2.9657826232910156
122804,0.887354736328125,10.222841491699219,3.087329864501953
122871,0.2568658447265625,9.688003692626953,2.75187744140625
122938,0.6599775695800781,8.978778533935547,2.4806414794921876
123003,1.1177256774902344,9.598190460205078,2.658321990966797
123071,0.7021897888183594,8.737630004882813,2.4037014770507814
123138,-0.05313949584960938,10.229727172851563,3.196003875732422
123203,0.9415420532226563,7.235952758789063,2.600841522216797
123271,3.774251403808594,12.625046081542969,3.7772451782226564
123337,3.7784426879882815,13.699362030029297,6.284680938720704
123404,1.840422821044922,9.663454742431641,9.82676513671875
123471,2.1297711181640624,9.076824645996094,2.967129821777344
123537,1.0346484375,8.755892028808594,1.8309924316406252
123603,1.9969972229003907,11.366613006591798,7.934100952148438
123671,0.2028282165527344,6.592291259765625,5.760321350097657
123737,2.840343475341797,8.607251129150391,5.036875762939453
123803,2.9211753845214847,10.370584259033203,3.689527587890625
123871,0.8181985473632812,8.618627471923828,1.9764898681640626
123938,2.4107368469238284,10.881771240234375,2.0447479248046876
124003,2.651585998535156,8.398285675048829,2.279010772705078
124071,1.2969030761718752,9.871072998046875,4.868625640869141
124137,1.5838563537597656,8.746012573242188,4.23199951171875
124203,2.3998095703125,8.137827301025391,2.7196943664550783
124271,2.2576052856445314,10.091863861083985,3.095263366699219
124338,2.9220735168457033,11.242071990966798,4.0195912170410155
124404,3.2780332946777344,11.302246856689454,3.826193389892578
124471,3.063080291748047,6.467450866699219,1.5296690368652344
124537,1.5286212158203125,10.41444305419922,4.164489898681641
124603,2.022444305419922,6.538103942871094,0.6833290100097656
124671,1.8748512268066406,6.301595764160156,0.4355941772460938
124737,2.7434948730468753,8.144563293457031,1.2633728027343751
124804,2.614163818359375,12.004137268066406,3.659290466308594
124871,2.901266784667969,11.630065155029298,1.488504638671875
124940,3.1018496704101564,7.884853363037109,3.6911741638183595
125003,3.2488439941406253,8.404871978759767,3.1391221618652345
125071,3.0602362060546877,9.145980834960938,2.3311024475097657
125137,2.6957441711425782,10.413844299316407,4.206552429199219
125203,1.5007791137695314,11.190878448486329,3.9775286865234376
125271,1.924248504638672,9.905202026367188,3.8875657653808595
125338,0.11181747436523438,9.501042480468751,2.6491909790039063
125404,2.9618907165527344,10.54811508178711,3.2364198303222658
125471,3.573369140625,8.135581970214844,0.33141082763671875
125538,4.5514352416992185,7.093449096679688,1.7058526611328126
125603,2.7644512939453127,7.729476470947266,0.5375321960449219
125671,2.6625132751464844,14.498400421142579,6.323749694824219
125737,4.1129969787597656,11.65221908569336,2.767594757080078
125803,1.9455043029785157,11.162587280273438,5.809419250488282
125871,4.320465545654297,10.49737060546875,1.349593505859375
125937,2.6096731567382814,11.042836303710938,1.1802955627441407
126003,1.969753875732422,10.355914764404297,2.933599548339844
126071,1.592538299560547,8.47118408203125,4.064797210693359
126137,2.070195007324219,11.277248840332032,5.223238220214844
126203,3.129991149902344,8.49513427734375,0.10133926391601562
126271,2.412682800292969,8.66652786254883,0.7491920471191407
126338,1.8866766357421876,6.514602813720703,-0.9072633361816407
126403,3.7142262268066406,8.479866027832031,0.9624984741210938
126471,4.093387756347656,9.020990753173828,2.9999116516113284
126538,2.5738975524902346,9.456884307861328,4.195026397705078
126603,4.115391998291016,9.260343017578126,6.0131455993652345
126671,1.4271322631835939,9.299262084960938,5.062771911621094
126737,4.063150634765625,11.582164764404297,-3.549119567871094
126803,1.4786251831054689,15.232174530029297,-2.834655303955078
126871,2.305805053710938,9.5273876953125,2.7186465454101563
126938,2.4168740844726564,9.723629608154297,-0.3619473266601563
127003,2.252216491699219,7.05857162475586,-0.36718643188476563
127070,1.8809884643554688,5.809868316650391,-2.149080963134766
127138,2.4050486755371097,8.319549407958984,-1.686991882324219
127203,1.4337185668945314,16.335679779052736,4.296365661621094
127270,2.8502229309082034,5.48743881225586,1.4462924194335938
127338,2.738106079101563,4.786296844482422,3.761078796386719
127404,2.3209236145019534,5.268743591308594,0.0622705078125
127471,3.9809715270996096,7.491471405029297,2.179617462158203
127537,4.036955108642578,7.557484130859375,-0.46643005371093754
127603,4.144581298828125,9.518556060791017,1.875000915527344
127670,3.3287777709960937,8.343499603271486,4.568649444580078
127737,2.727777557373047,8.755442962646486,2.8672874450683596
127803,3.5366954040527347,10.41114990234375,2.8493247985839845
127870,4.0459364318847655,10.314151611328125,3.8245468139648438
127937,3.965852966308594,9.269773406982422,2.8529173278808595
128003,3.975582733154297,11.763886871337892,3.890409851074219
128070,3.366199951171875,9.065298614501954,2.029329986572266
128137,3.5119967651367188,9.08146499633789,2.125280456542969
128203,3.1226564025878907,9.527986450195312,1.515897674560547
128270,3.890409851074219,9.33863021850586,2.692151641845703
128337,3.424578552246094,10.813662872314454,1.6024177551269532
128403,3.1627729797363284,9.490414581298829,2.29203369140625
128470,3.307072906494141,9.117539978027343,2.426005096435547
128537,3.399430847167969,9.36692138671875,2.960094451904297
128603,3.051404571533203,10.281669158935548,2.599644012451172
128670,2.8984226989746094,9.160350952148438,1.8348843383789064
128737,3.228186950683594,10.679541778564454,2.3035597229003906
