relative_time,AccX,AccY,AccZ
0,-0.2543211364746094,8.219856719970704,5.411097564697266
13,-0.28455825805664064,8.464597778320313,5.54447021484375
80,-0.31823822021484377,8.711434478759767,5.370980987548829
147,-0.4233197021484375,8.838520202636719,5.241051177978516
212,-0.21195922851562501,8.599167938232423,5.098397827148438
280,-0.2639012145996094,8.717571716308594,5.129533081054688
347,-0.15702346801757813,8.679999847412109,5.144501953125
413,-0.22722747802734375,8.20339096069336,4.920268249511719
480,-0.14265335083007813,8.21731201171875,4.86712875366211
547,0.12289443969726563,8.154442749023438,4.874164123535157
614,-0.004340972900390625,8.146658935546876,5.172793121337891
680,0.13262420654296875,8.456664276123048,5.163811798095703
747,0.04101470947265625,8.526568908691406,5.052742767333984
814,-0.049846343994140625,8.287516021728516,5.298681335449219
880,-0.24339385986328127,8.487051086425781,5.484145660400391
947,-0.26584716796875,8.596473541259765,5.361849975585938
1014,-0.19983444213867188,8.67041976928711,5.371430053710938
1080,-0.11780502319335938,8.095914459228515,4.999902648925781
1147,-0.140108642578125,8.063432006835939,4.958738250732422
1214,-0.08367599487304687,8.227640533447266,5.0022976684570315
1280,0.0700543212890625,8.355175323486328,5.263803863525391
1347,-0.012873229980468751,8.557105407714845,5.282514953613282
1414,-0.2321672058105469,8.908724212646485,5.417384490966797
1480,-0.22917343139648438,8.982820129394531,5.048252105712891
1547,-0.27677444458007816,8.363258514404297,4.6836103820800785
1612,-0.07619155883789062,8.57267303466797,4.554429016113281
1680,0.04445755004882813,8.605005798339844,4.48781753540039
1747,-0.06960525512695313,8.957373046875,4.901108093261719
1814,-0.13726455688476563,9.224567413330078,5.066663818359375
1880,0.085023193359375,9.173972625732423,4.771178283691406
1947,-0.027393035888671875,8.511001281738281,4.124972076416016
2014,0.3441343688964844,8.760831756591797,4.025578765869141
2080,0.5194198608398438,8.706045684814454,4.309538269042969
2146,0.3538641357421875,9.326056365966798,4.758305053710938
2214,0.30761032104492186,9.498946838378906,4.820575561523437
2279,0.23171813964843752,9.05556884765625,4.593048706054688
2346,-0.07828720092773438,8.840316467285156,4.691543884277344
2414,0.1047821044921875,8.464747467041017,4.680915985107422
2479,0.06855743408203126,9.052575073242188,4.813091125488281
2546,0.44442581176757817,8.87354736328125,5.125940551757813
2613,0.7770341491699219,8.660390625,4.960384826660157
2680,0.36209701538085937,8.264463958740235,4.901108093261719
2747,0.599802703857422,8.343050537109375,4.597689056396485
2814,0.9020242309570313,8.274642791748047,4.718338165283203
2880,0.03682342529296875,8.428373107910156,5.015769653320313
2947,0.6680607604980469,8.651708679199219,5.22877670288086
3014,0.6306385803222656,8.435408477783204,4.971761169433594
3080,0.7485932922363282,8.609795837402345,5.108426971435547
3147,1.0338999938964843,8.419990539550781,5.023254089355469
3214,0.6505471801757813,8.469088439941407,4.822072448730469
3280,1.0675799560546875,8.414452056884766,4.90260498046875
3347,0.47017227172851567,8.679999847412109,4.660408630371094
3414,0.5194198608398438,8.749754791259766,4.936434631347656
3480,0.35521133422851564,8.516839141845704,5.232818298339844
3546,1.1570938110351563,8.751401367187501,4.153861999511719
3615,0.6327342224121094,8.689130859375,4.894521789550781
3680,0.4421804809570313,8.729247436523439,4.096381530761719
3747,0.17274078369140625,8.83477798461914,3.992048492431641
3814,0.4977149963378906,8.484506378173828,4.750221862792969
3880,0.3550616455078125,9.032367095947267,4.956043853759766
3947,0.6030958557128907,8.60814926147461,4.522395629882813
4015,0.17393829345703127,8.504864044189453,4.649481353759766
4080,0.4638853454589844,8.551417236328126,4.869823150634766
4147,0.5132826232910157,8.729846191406251,4.9424221801757815
4214,0.3782633972167969,8.716823272705078,4.695735168457031
4280,0.219144287109375,8.661139068603516,4.795577545166016
4347,0.021405487060546877,8.828341369628907,4.873415679931641
4414,0.14055770874023438,8.417445831298828,5.034929809570313
4480,0.267044677734375,8.366851043701173,5.397475891113282
4547,0.2137554931640625,8.096213836669921,5.156626739501953
4615,-0.02604583740234375,8.628806304931642,5.73607177734375
4680,-0.3776646423339844,8.192463684082032,4.925357666015625
4747,-0.13995895385742188,8.319699096679688,4.322261810302734
4814,-0.42960662841796876,9.245972900390626,5.564678192138672
4880,-0.5275030517578125,8.58809097290039,4.86952377319336
4947,-0.02424957275390625,9.243278503417969,5.338199157714844
5014,0.06197113037109375,9.142388305664063,5.3721784973144535
5080,-0.8412506103515626,7.868686981201172,4.901706848144531
5147,-0.45041336059570314,8.198151855468751,4.652924194335938
5214,-0.9268725585937501,8.261170806884767,5.517825622558594
5280,-0.3261717224121094,9.263636169433594,5.588478698730469
5347,0.23306533813476563,8.495733032226562,4.771178283691406
5413,0.477806396484375,8.914113006591798,5.373525695800781
5480,0.007334747314453125,8.289012908935547,5.4301080322265625
5547,0.6608757019042969,8.300389251708985,5.010231170654297
5614,-0.3088078308105469,8.802744598388673,4.666695556640625
5680,0.2989283752441406,7.9960720825195315,5.197042694091797
5747,0.3629951477050781,8.673263854980469,5.182971954345703
5813,0.5224136352539063,8.089627532958986,5.012626190185547
5880,0.36119888305664066,7.817942504882813,4.987478485107422
5947,0.07469467163085938,7.7724371337890625,5.106930084228516
6014,-0.326920166015625,8.47163314819336,5.035229187011719
6080,0.29907806396484377,8.596323852539063,4.887187042236328
6147,1.4953903198242189,8.649163970947265,4.814138946533204
6214,1.2370275878906252,8.33317108154297,4.313579864501953
6280,0.9036708068847656,9.156908111572266,3.6070491027832032
6347,-0.9473799133300782,8.363258514404297,4.834346923828125
6414,0.30416748046875003,8.699309692382814,5.730383605957032
6480,-1.1433224487304687,9.270222473144532,6.159391479492188
6547,-0.2734812927246094,8.180488586425781,5.567372589111328
6614,-0.8571176147460938,8.069419555664062,5.558391265869141
6680,-0.06616241455078126,8.024812316894531,6.048322448730469
6747,-0.5652246093750001,8.159232788085937,4.964276733398438
6814,-0.024099884033203126,8.53674774169922,5.379513244628907
6880,0.5980064392089844,8.565338287353516,6.386020202636719
6947,1.1250604248046876,8.494984588623048,4.633614349365234
7014,-0.38619689941406254,8.431067504882813,6.4809228515625
7080,0.5375321960449219,7.543862457275391,4.852159881591797
7147,-1.3347743225097657,8.211324462890625,4.435426483154297
7214,-0.5972579956054688,8.057893524169922,5.095853118896485
7280,-0.6090834045410156,8.223748626708986,5.251828765869141
7347,-0.11256591796875001,8.749305725097656,5.258564758300782
7414,0.9551637268066406,8.936566314697266,4.518503723144532
7480,-0.46882507324218753,8.988807678222656,4.333787841796875
7547,0.5733078002929688,9.712852020263673,4.005819854736329
7614,-1.0439291381835938,8.13198944091797,6.61264892578125
7680,-0.4848417663574219,8.203690338134766,5.855074310302735
7747,-0.621357879638672,7.914042663574219,4.825365600585938
7814,-0.38514907836914064,6.872059478759766,4.985831909179688
7880,-0.06466552734375,8.258027343750001,3.8468504333496094
7947,1.191222839355469,9.29072982788086,5.2311717224121095
8014,0.896785125732422,8.864566040039064,5.4057087707519536
8080,0.02844085693359375,9.547895050048828,5.5518049621582035
8146,-0.2022294616699219,9.416168975830079,5.304070129394532
8214,-0.6550378417968751,8.346343688964843,5.737119598388672
8280,-0.4710704040527344,7.1365594482421875,5.147196350097657
8347,-1.2237052917480469,8.364156646728516,5.176086273193359
8414,-1.090781707763672,7.499255218505859,6.990762634277344
8480,-0.4531077575683594,8.273894348144532,5.6645205688476565
8547,0.4890330505371094,8.329728240966798,4.281546478271484
8614,1.150657196044922,8.499325561523438,4.723876647949219
8680,-0.5185217285156251,8.173902282714844,5.082830200195313
8747,-0.5155279541015625,8.405919799804687,4.3876757812500005
8813,-0.7450007629394532,8.203540649414062,5.697302398681641
8880,0.05313949584960938,9.053772583007813,5.471122741699219
8947,-0.4567002868652344,8.484805755615234,7.616910552978516
9013,0.5911207580566407,7.248376922607422,5.732628936767578
9080,-0.2980302429199219,8.01178939819336,6.727011108398438
9147,0.41269180297851565,7.566166076660156,5.950126647949219
9213,0.26809249877929686,9.048084411621094,5.298381958007813
9280,-1.2484039306640626,7.645950164794923,5.7841218566894534
9347,-0.2547702026367188,8.264014892578125,5.6570361328125
9413,-0.059725799560546876,7.182214508056641,5.221741333007813
9480,-1.7916242980957031,6.864275665283204,6.404431915283204
9547,0.31255004882812504,8.259075164794922,5.433999938964844
9613,1.1720626831054688,8.76187957763672,5.891149291992188
9680,0.9900411987304688,7.977510681152344,6.057902526855469
9746,0.4843927001953125,8.308023376464844,5.910608825683594
9814,-0.469423828125,8.288563842773438,4.02408187866211
9880,0.05957611083984375,8.351283416748048,3.9700442504882814
9947,-0.09190887451171875,8.196654968261718,3.507506103515625
10014,-1.956581268310547,8.092920684814453,6.123765563964844
10080,-0.8174501037597657,8.600066070556641,7.524702301025391
10147,-0.27647506713867187,7.940836944580078,6.368057556152344
10213,1.1558963012695314,8.762178955078125,5.230273590087891
10280,1.1967613220214843,8.732540588378907,5.717809753417969
10347,1.000968475341797,9.131461029052735,5.763913879394532
10413,0.828527069091797,7.177424468994141,5.508844299316406
10480,0.5405259704589844,7.367080078125,5.403912506103516
10547,-0.4555027770996094,8.314160614013673,6.172564086914063
10614,-0.6764433288574219,8.567284240722657,6.039341125488281
10680,-1.3036390686035157,9.619595947265626,5.668861541748047
10747,-0.3126997375488281,8.213569793701172,6.8937643432617195
10814,0.269439697265625,6.977889404296875,5.981411590576172
10880,0.3715274047851563,8.423283691406251,4.30908920288086
10947,0.9189390563964844,7.933352508544922,5.547763366699219
11013,0.3644920349121094,8.282725982666015,7.472610626220703
11080,0.21465362548828126,7.819289703369141,6.5996260070800785
11147,-1.6199313354492189,8.516839141845704,4.943470001220703
11214,-2.722987518310547,6.865922241210938,4.537065124511719
11280,1.5633489990234375,7.159461822509766,4.141587524414063
11346,1.7920733642578126,8.31161590576172,5.445376281738281
11414,0.4315525817871094,9.642498321533203,4.265829162597656
11480,-1.9860699462890625,7.575147399902344,5.0834289550781255
11547,1.6887881469726564,8.78298568725586,5.526357879638672
11613,-0.40730300903320316,8.523724822998048,6.968459014892579
11680,0.2900967407226563,6.974446563720703,6.827452239990235
11747,-0.6686595153808594,8.37538330078125,5.6925123596191405
11814,0.018860778808593753,7.093299407958985,6.625372467041016
11880,0.9178912353515626,7.109465789794922,8.005502471923828
11947,1.9437080383300782,8.561745758056642,7.247478790283203
12014,0.08831634521484376,8.608448638916016,5.431754608154297
12080,-0.5288502502441407,7.096592559814454,5.908213806152344
12147,-2.1890478515625,8.321944427490235,6.672225036621094
12214,-0.87418212890625,7.75986328125,4.221072235107422
12280,-1.1403286743164063,7.662266235351563,7.37426513671875
12347,-0.5769003295898438,8.609047393798829,7.054230651855469
12414,-0.48873367309570315,8.0233154296875,6.003715209960938
12480,-2.2264700317382813,6.965764617919922,5.815257110595703
12547,2.6171575927734376,9.258995819091798,4.636458435058594
12614,-0.6045927429199219,8.22494613647461,5.9954823303222655
12680,0.9276210021972656,7.325765991210938,5.751340026855469
12746,-0.9252259826660156,8.414002990722656,5.444029083251953
12813,-0.6230044555664063,7.618407440185547,6.055208129882812
12880,-0.19908599853515627,6.863976287841798,5.296136627197266
12947,-1.5917898559570314,7.629484405517578,6.8777476501464845
13144,-0.9740245056152345,8.496182098388672,7.812104644775391
13173,0.5074447631835938,8.30398178100586,6.278094635009766
13291,0.7334747314453125,8.29874267578125,5.411396942138672
13410,-0.6505471801757813,8.887318725585938,7.260352020263673
13527,0.045505371093750004,7.798932037353516,6.355034637451173
13627,-2.3727159118652343,6.478378143310548,4.545896759033203
13748,1.1349398803710937,7.910899200439453,5.34328857421875
13861,-1.1642788696289064,8.439001007080078,6.0342517089843755
13961,-0.4794529724121094,7.1349128723144535,6.6189358520507815
14061,0.8879534912109376,6.232439575195313,4.684807891845703
14162,0.14130615234375002,7.475454711914063,5.809718627929688
14260,-1.6374449157714845,9.892029418945313,12.29498245239258
14360,-0.17184265136718752,8.961414642333985,5.044360198974609
14461,1.6929794311523438,7.111711120605469,1.8402731323242187
14561,-0.22543121337890626,6.87894515991211,2.2995181274414063
14661,0.4387376403808594,6.945257263183594,4.536765747070313
14766,0.3499722290039063,5.723647613525391,6.546935577392579
14861,0.14669494628906252,8.789871368408203,6.234385528564453
14896,-2.7436445617675784,12.134965209960939,3.536246337890625
15039,0.9991722106933594,9.011710052490235,7.952662353515626
15109,0.7673043823242188,7.797884216308594,7.8023748779296875
15159,1.1332933044433595,7.092251586914063,6.988966369628907
15260,0.7593708801269532,7.538024597167969,3.5235227966308598
15360,-1.4748829650878907,8.587192840576172,5.845643920898437
15460,-0.7072792053222656,9.181756439208986,4.315226440429687
15559,-0.3303630065917969,9.695188751220703,4.377347259521485
15660,-1.1386820983886718,8.10759017944336,5.002147979736328
15765,1.3943504333496095,9.40808578491211,3.9002893066406252
15861,-0.23082000732421876,7.7356137084960945,5.133424987792969
15959,0.004041595458984375,8.091274108886719,4.739144897460938
16060,-1.3706996154785156,7.536228332519531,5.642366638183594
16162,-1.0918295288085937,8.955726470947265,6.980583801269532
16261,0.2902464294433594,9.073381805419922,4.815935211181641
16361,0.87897216796875,7.870333557128907,4.506229248046875
16461,0.39173538208007813,8.493487701416017,4.055815887451172
16510,-0.0544866943359375,8.930578765869141,5.508844299316406
16556,-0.5352868652343751,8.039930877685547,5.3828063964843755
16627,0.0028440856933593752,8.846004638671875,3.4955310058593754
16727,0.164058837890625,8.418793029785157,5.726192321777344
16826,-0.8544232177734375,8.966803436279298,6.09816879272461
16928,-0.02245330810546875,7.72199203491211,4.9576904296875
17041,0.42047561645507814,8.116122436523439,4.561614074707031
17149,1.586550750732422,8.149353332519532,4.413871307373047
17266,-0.10747650146484375,8.060438232421875,5.066514129638672
17366,0.38574783325195316,8.325087890625001,5.419031066894531
17466,-0.03338058471679688,8.47792007446289,3.763623504638672
17565,0.18651214599609375,8.05055877685547,6.1646305847167975
17664,0.8328680419921876,8.200247497558594,5.6098841857910156
17763,-0.46074188232421875,8.345894622802735,5.961802368164062
17863,-0.9553134155273438,9.347312164306642,4.882846069335938
17962,-0.5459147644042969,7.955207061767578,4.738695831298829
18061,0.1802252197265625,8.20339096069336,4.995861053466797
18126,-0.6044430541992187,9.12262939453125,5.632487182617187
18193,-0.9562115478515626,8.650062103271484,6.4885569763183595
18226,-0.10493179321289063,9.564360809326173,5.151237945556641
18333,0.045056304931640624,8.912616119384767,5.783523101806641
18440,-0.5739065551757813,7.928712158203125,4.902305603027344
18550,-0.16854949951171877,8.12585220336914,4.600084075927735
18667,-0.23441253662109376,8.745264129638672,4.333638153076172
18773,-0.9839039611816407,7.708070983886719,6.302344207763672
18893,0.2698887634277344,9.679022369384766,5.840255126953125
19010,0.5420228576660157,5.682932281494141,6.345604248046875
19133,-0.4167333984375,7.751480712890626,5.826783142089844
19245,0.787811737060547,8.295599212646485,4.77806396484375
19364,-0.5324427795410156,7.89158935546875,5.276826782226562
19463,-0.6092330932617188,8.820707244873047,5.33415756225586
19562,1.4199472045898438,8.19186492919922,4.716392211914063
19661,1.7786013793945314,7.448361053466797,5.335953826904297
19743,-0.45984375,8.887618103027345,6.389013977050782
19823,-1.2970527648925783,8.756790161132812,5.718109130859375
19926,0.6876699829101562,7.353608093261719,5.823489990234375
19969,-0.10343490600585938,7.42740463256836,5.423671417236329
20093,1.404529266357422,7.2795121765136726,4.817581787109376
20212,0.7548802185058594,7.579787750244141,6.489455108642578
20328,-1.3205538940429689,6.695426788330079,7.178921356201172
20442,-2.1546194458007815,10.174342346191407,4.180656280517578
20550,0.8116122436523437,9.602381744384767,4.774471435546875
20675,-0.9128018188476563,8.573571166992188,5.472769317626954
20693,-1.0575508117675783,6.5026277160644534,6.0713745117187505
20810,0.5098397827148438,8.891510009765625,4.485123138427735
20826,0.963995361328125,7.463778991699219,6.463708648681641
20927,0.9930349731445313,7.808661804199219,5.422024841308594
20959,0.5900729370117188,6.631958770751954,2.4131318664550783
21071,-0.379610595703125,8.661588134765626,5.57800048828125
21176,-1.9875668334960939,7.639513549804688,4.911137237548829
21293,-0.41149429321289066,7.967331848144531,6.383625183105469
21411,1.6066090393066408,8.141719207763673,5.984105987548828
21533,-0.4842430114746094,10.356962585449219,4.16778305053711
21640,-1.0819500732421876,8.319699096679688,4.626578979492188
21750,-3.3322206115722657,9.366622009277345,6.536607055664063
21865,-0.28575576782226564,8.811426544189453,5.13731689453125
21973,-0.0975970458984375,7.9466748046875,5.349575500488282
22093,-0.03562591552734375,8.365054779052734,4.8014154052734375
22210,0.6508465576171876,8.840316467285156,5.09944564819336
22327,-0.09729766845703125,8.338110809326173,6.596632232666016
22440,1.9140696716308594,9.987530822753907,4.558620300292969
22547,0.7532336425781251,9.64758773803711,5.409600677490235
22671,0.10044113159179688,8.021519165039063,5.205425262451172
22776,-0.30551467895507817,8.675060119628906,4.094435577392578
22891,-0.32871643066406253,8.77819564819336,6.255341949462891
22977,0.2549198913574219,8.144413604736329,6.3337788391113286
23023,0.9470805358886719,8.289461975097657,6.8021548461914065
23150,1.9522402954101563,9.995464324951172,4.469405822753907
23267,0.4435276794433594,7.534282379150391,5.75089096069336
23373,-0.12843292236328124,8.504265289306641,4.931045837402344
23494,-0.36314483642578127,7.418273620605469,6.5379542541503906
23610,0.9780661010742188,8.927884368896486,4.757107543945312
23727,0.15103591918945314,8.352630615234375,5.5887780761718755
23840,0.060474243164062504,7.835456085205078,6.184838562011719
23950,0.30147308349609375,8.315807189941406,5.411846008300781
24066,-0.7929011535644531,8.97847915649414,5.677393798828125
24168,0.2854563903808594,8.01942352294922,5.56168441772461
24293,0.5138813781738282,7.913743286132813,6.0394908142089845
24413,-0.16480728149414064,8.333620147705078,5.259313201904297
24528,-0.374820556640625,8.558153228759766,4.811893615722656
24574,-0.17693206787109375,8.271050262451173,4.982538757324219
24677,0.31090347290039066,8.390950927734375,5.576204223632812
24794,-0.01526824951171875,8.46010711669922,5.439987487792969
24908,0.23516098022460938,8.081694030761719,5.825585632324219
25028,-0.7541317749023438,8.047565002441406,6.336173858642579
25150,-1.4444961547851562,8.231233062744142,5.5200709533691406
25267,-0.5671705627441407,8.213719482421876,5.061424713134766
25373,-0.20492385864257814,8.57940902709961,5.936205596923829
25491,0.01916015625,9.213490447998048,5.660179595947266
25608,-0.336500244140625,8.454568634033203,5.638175354003907
25681,-0.6256988525390625,7.690258026123047,5.472320251464844
25797,-0.39233413696289066,8.205935668945314,4.788691864013672
25908,0.18965560913085938,8.59856918334961,5.448968811035156
25994,-0.5905220031738282,8.395291900634765,5.428311767578125
26110,-0.3116519165039063,8.304879913330078,5.332361297607422
26232,0.5278024291992188,9.124725036621093,5.722300415039062
26348,-0.5516029357910156,8.189320220947266,5.548811187744141
26462,-0.5301974487304688,8.041577453613282,5.69775146484375
26561,-0.9901908874511719,7.699239349365235,5.182373199462891
26669,-1.0126441955566408,8.20009780883789,4.979844360351563
26773,-0.8415499877929687,8.47792007446289,5.6309902954101565
26892,-1.5295193481445313,8.065078582763672,5.846392364501954
27011,-0.40071670532226566,8.055797882080078,5.656138000488282
27128,0.8595126342773438,8.28048065185547,4.9407756042480475
27240,1.0211764526367189,8.904532928466796,5.453609161376954
27344,-1.3045372009277345,7.860753479003907,4.450994110107422
27451,-2.4668701171875003,8.171507263183594,9.283095703125001
27568,-1.8160235595703127,7.309898986816407,6.920408935546876
27644,-0.16645385742187502,8.186027069091796,5.6821838378906255
27711,-0.7903564453125,6.86173095703125,4.844974822998047
27757,-0.3023712158203125,7.3393876647949226,4.702770538330078
27898,-0.501756591796875,6.996600494384766,5.854176177978516
27945,1.2222084045410158,8.439001007080078,5.117857360839844
28029,1.3897100830078126,9.07951904296875,5.171146545410156
28090,-0.11391311645507814,8.328979797363282,6.538702697753907
28213,-1.7131874084472658,9.247918853759765,6.403234405517578
28291,1.2250524902343751,8.882678375244142,5.861361236572266
28412,0.37137771606445313,8.22973617553711,4.547543334960937
28527,-0.4463717651367188,6.681356048583985,6.098468170166016
28640,-0.5679190063476562,8.971593475341797,4.608316955566407
28745,-0.8283773803710938,9.330696716308594,5.060975646972657
28848,-0.024399261474609375,9.035360870361329,3.432811431884766
28973,-1.1623329162597658,9.102421417236329,6.332731018066407
29095,0.04460723876953125,8.801098022460938,4.829107818603516
29211,-0.6982978820800781,8.461903381347657,5.8212446594238285
29335,0.12169692993164063,7.447911987304688,5.01756591796875
29445,0.8003855895996094,7.868237915039063,5.646258544921875
29497,0.14400054931640627,8.80169677734375,4.302353210449219
29614,-0.7810757446289063,8.731193389892578,5.5564453125
29730,-0.8388555908203126,7.931107177734376,5.398224334716797
29847,-0.014220428466796876,8.070467376708985,4.693340148925781
29961,-0.7098239135742188,8.450377349853516,5.2735336303710945
30110,0.5466632080078125,8.569679260253906,5.271138610839844
30228,0.5081932067871094,8.245004425048828,5.686674499511719
30345,-0.8379574584960938,7.231462097167969,6.3018951416015625
30443,-0.528101806640625,8.913963317871094,5.698799285888672
30550,1.1617341613769532,7.874524841308594,6.965016174316407
30669,0.5261558532714844,8.278534698486329,5.574108581542969
30698,1.9121237182617188,9.436676330566407,4.677772521972656
30810,0.48828460693359377,8.257428588867189,5.295537872314453
30934,0.06750961303710938,8.017028503417968,4.819677429199219
31040,0.2704875183105469,7.681127014160157,5.706882476806641
31146,-0.281414794921875,8.503516845703125,5.848937072753906
31246,1.0496173095703125,8.382268981933594,5.596262512207032
31344,1.0473719787597657,8.446186065673828,6.095175018310547
31450,1.2834310913085938,7.93993881225586,4.357288970947266
31558,0.3818559265136719,7.36273910522461,6.187383270263672
31658,0.9297166442871094,7.881410522460938,5.4107981872558595
31768,0.5096900939941407,7.797884216308594,6.346951446533203
31844,0.2770738220214844,8.234226837158204,6.111640777587891
31974,0.8759783935546875,8.263865203857423,4.219425659179688
32094,1.2928614807128906,7.631280670166016,4.365970916748047
32210,0.16316070556640624,8.810079345703125,5.494025115966797
32326,0.17663269042968752,8.103847961425782,5.504503326416016
32428,0.01945953369140625,8.929530944824219,5.6362294006347655
32553,0.2267784118652344,8.487649841308594,5.508095855712891
32667,0.6159690856933594,9.093140716552735,5.763315124511719
32777,-0.9205856323242188,9.439969482421876,3.0719119262695314
32892,0.10283615112304688,7.947722625732422,6.569837951660157
33016,4.40249496459961,10.550360412597657,1.981728973388672
33130,-0.7583230590820312,7.055577850341797,6.1945683288574225
33190,1.212778015136719,8.804241485595703,5.351371765136719
33312,-2.564766540527344,6.888076171875,3.497776336669922
33429,1.1692185974121094,9.225615234375,5.467679901123047
33544,2.354154510498047,9.534423065185548,6.437812500000001
33652,1.0021659851074218,9.810748443603517,4.085304565429688
33776,-0.13726455688476563,8.091573486328125,8.514743499755859
33883,-3.125350799560547,6.165079650878907,4.351900177001953
33986,-3.9883062744140627,4.31343017578125,7.885452117919923
34111,-0.3579057312011719,8.16507064819336,7.156318359375001
34232,2.2466780090332032,7.392976226806641,5.775589599609376
34295,2.7104136657714846,8.916807403564453,5.052742767333984
34357,2.5402175903320314,8.649613037109376,4.006717987060547
34427,0.11047027587890626,9.532626800537109,5.759722595214844
34490,-2.049088897705078,8.595126342773439,6.780749359130859
34612,0.42391845703125003,6.878645782470704,5.268593902587891
34728,1.0585986328125,8.105344848632813,7.181466064453125
34798,1.678759002685547,7.540269927978516,3.9320233154296877
34825,1.1138337707519532,6.631809082031251,8.027357025146484
34930,1.3539344787597658,5.934259643554688,2.9473709106445316
34987,1.7965640258789064,5.594615936279297,4.962031402587891
35025,0.7888595581054688,7.062164154052735,3.2718960571289064
35095,-4.736001434326172,9.03012176513672,7.484735412597657
35193,-1.7004638671875,8.788524169921875,4.132755889892579
35226,1.630858612060547,7.121440887451172,8.319549407958984
35344,2.3558010864257812,8.638536071777343,8.27284652709961
35444,-1.2972024536132813,6.262377319335938,8.158484344482423
35553,0.9554631042480469,8.19620590209961,5.7963963317871094
35661,0.2549198913574219,7.893385620117188,4.927902374267578
35766,-3.8416113281250004,6.898404693603516,7.044351196289063
35891,1.7666262817382814,11.114836578369141,3.8215530395507815
36012,-0.3909869384765625,5.744604034423828,4.339176635742188
36127,-1.086141357421875,5.845643920898437,5.029091949462891
36193,-0.9657916259765625,8.356223144531251,3.6045043945312503
36226,1.7389338684082032,6.625522155761719,6.572682037353516
36327,-0.028889923095703127,7.015760650634766,5.478158111572266
36427,0.8955876159667969,6.422843627929688,6.800957336425782
36529,1.3163626098632812,7.965685272216797,4.696932678222656
36640,-2.2370979309082033,8.279881896972658,6.0748173522949225
36774,-2.715652770996094,8.26042236328125,6.001320190429688
36892,-0.7214996337890626,9.078770599365235,5.450316009521485
37008,-0.4010160827636719,8.44962890625,5.28625717163086
37061,-0.6198609924316406,7.71001693725586,7.035968627929688
37161,-0.3393443298339844,8.356073455810547,5.410947875976563
37260,-1.5441888427734376,6.621031494140626,4.464466094970703
37342,0.9460327148437501,8.065377960205078,3.406466217041016
37357,-1.6808546447753907,7.84174301147461,4.387526092529297
37471,-1.5112573242187501,9.079219665527344,7.5489518737792976
37573,-0.9000782775878907,8.677455139160157,6.236481170654297
37686,1.7396823120117189,9.055119781494142,7.267088012695313
37788,0.8315208435058594,6.547684020996094,3.4335598754882812
37909,0.9936337280273438,7.269033966064454,4.185596008300782
38041,-0.8375083923339844,8.99464553833008,5.326074371337891
38151,-4.414619750976563,9.227112121582032,7.761060791015625
38267,-2.0564236450195312,9.077722778320313,6.677314453125001
38374,-1.5144007873535157,7.661966857910157,5.060376892089844
38480,-0.7048841857910156,7.345674591064453,5.870941314697266
38580,-1.4290782165527345,7.5224569702148445,6.56519760131836
38681,0.06361770629882812,8.578211517333985,3.933220825195313
38779,-0.44188110351562504,8.711284790039063,5.919440460205078
38878,-0.2920426940917969,7.981252899169922,6.213429107666016
38961,-0.5384303283691406,8.94539794921875,7.4941658020019535
39110,-0.16166381835937502,7.425758056640626,6.3794338989257815
39232,0.3276686096191406,7.917635192871094,4.674179992675781
39349,0.49337402343750003,8.846004638671875,5.685327301025391
39443,-2.734812927246094,7.910899200439453,6.517147521972657
39491,0.12005035400390626,8.953780517578126,3.842808837890625
39557,1.1214678955078126,7.138655090332032,4.396058349609375
39710,0.8942404174804688,4.861141204833984,6.698270874023438
39826,0.6357279968261719,5.614674224853516,3.0657746887207034
39926,-0.12214599609375,6.871161346435548,5.7278388977050785
39960,-2.6732908630371095,7.706873474121094,9.579629058837892
40060,-2.8160939025878906,9.345216522216797,7.784711608886719
40160,-0.25701553344726563,9.249415740966798,5.748795318603516
40261,-0.6697073364257813,6.852450256347657,4.705614624023438
40360,0.9604028320312501,7.412286071777344,6.197412414550781
40460,1.4397061157226563,6.997648315429688,6.432573394775391
40561,-0.7854167175292969,7.048841857910157,6.692732391357422
40671,0.10448272705078125,9.436526641845704,4.818629608154297
40774,-0.28231292724609375,9.613458709716797,6.615193634033203
40888,-1.8744021606445314,8.093519439697266,6.224805450439454
41010,-0.7824229431152344,7.105873260498047,6.975943450927735
41133,-0.40730300903320316,7.9978683471679695,5.342390441894532
41240,1.3995895385742188,8.874744873046875,2.762505340576172
41349,0.36793487548828124,8.362360382080078,5.095853118896485
41465,2.5056394958496093,6.244564361572266,5.9391993713378906
41564,-0.20986358642578126,7.1802685546875,7.226821746826173
41658,0.41209304809570313,7.488477630615235,5.0145721435546875
41767,-0.22498214721679688,7.116950225830078,5.363047485351562
41843,-2.498155059814453,9.527687072753906,7.315138092041016
41945,-2.449805603027344,9.61211151123047,5.367388458251954
42051,0.08008346557617188,8.620573425292969,5.58802963256836
42161,1.3117222595214844,7.973768463134766,5.498815155029297
42260,-0.6381230163574219,8.32269287109375,4.723427581787109
42372,-0.43110351562500004,9.478738861083984,5.6398219299316406
42489,-0.1285826110839844,9.089847564697266,6.342311096191406
42613,-0.29877868652343753,7.993677062988282,6.9166667175292975
42728,0.6253994750976563,9.260941772460939,4.3824366760253906
42841,0.8057743835449219,6.813531188964844,4.210893402099609
42947,-0.19878662109375,7.593259735107423,4.429438934326172
43063,-0.09804611206054688,7.2968760681152345,5.439388732910157
43165,-0.2656974792480469,7.896978149414063,4.032165069580079
43263,0.5683680725097656,7.882158966064454,5.813460845947266
43363,1.8157241821289063,6.937174072265625,3.8410125732421876
43462,-2.639012145996094,7.601043548583985,7.01546127319336
43491,-3.1235545349121097,7.811954956054688,6.191275177001954
43641,-1.8718574523925782,9.097631378173828,5.097050628662109
43717,1.6682807922363283,10.202483825683593,5.894891510009766
43832,-1.4395564270019532,8.695866851806642,5.0075367736816405
43950,-0.29368927001953127,8.726253662109375,5.838309173583984
44067,-0.9014254760742187,6.768474884033203,2.7065217590332034
44174,-1.08015380859375,7.636968841552735,4.94616439819336
44283,0.2698887634277344,10.914702758789064,7.259453887939453
44385,-4.430187377929688,8.105793914794923,7.342531127929687
44484,-3.1317874145507814,7.560477905273438,6.8371820068359375
44583,-0.4140390014648438,7.579937438964844,4.737947387695312
44681,1.5096107482910157,6.964267730712891,7.843239898681641
44780,1.9752923583984376,9.82676513671875,4.990771636962891
44884,1.0541079711914063,10.3512744140625,4.498445434570312
45005,-0.6259982299804688,7.408394165039063,4.75171875
45091,-2.205962677001953,6.9325337219238286,3.690126342773438
45212,-1.7025595092773438,6.6541127014160155,5.976322174072266
45329,1.0503657531738282,7.627688140869141,4.434827728271484
45444,0.53408935546875,9.034013671875,5.584137725830079
45571,-0.2411485290527344,8.473279724121094,5.726491699218751
45689,-0.17887802124023439,6.947502593994141,5.166955261230469
45810,-0.5746549987792969,6.831643524169922,8.195158081054688
45813,-0.5746549987792969,6.831643524169922,8.195158081054688
45929,2.309696960449219,7.647147674560547,4.1498204040527344
46044,0.6810836791992188,8.895252227783203,7.342082061767578
46115,0.5990542602539063,9.595196685791016,6.05984848022461
46233,1.2269984436035157,7.838599548339844,4.518653411865235
46366,-0.5566923522949219,7.835605773925781,5.475314025878906
46414,0.6421646118164063,7.256011047363281,10.04186782836914
46479,0.5836363220214844,8.271649017333985,7.519762573242188
46546,0.9642947387695313,7.483986968994141,4.473896484375
46617,0.16540603637695314,9.617051239013673,5.39882308959961
46681,0.04939727783203125,8.070018310546875,5.76047103881836
46746,-1.5088623046875,8.101303253173828,6.847061462402344
46823,-3.749403076171875,9.92541000366211,4.399201812744141
46879,1.0484197998046876,5.300776977539063,6.259533233642578
46946,2.073787536621094,5.656287689208985,6.2385768127441406
47016,-0.650247802734375,7.431296539306641,5.59281967163086
47079,-0.4620890808105469,7.446714477539063,4.8560517883300784
47146,-0.030237121582031252,7.151079254150391,6.142326965332032
47217,0.07394622802734375,7.543862457275391,5.805826721191407
47279,1.1253598022460938,7.473957824707032,5.670358428955079
47346,0.07514373779296875,10.123597869873047,5.237458648681641
47422,1.3644126892089845,7.5504487609863284,5.086572418212891
47482,2.6542803955078127,7.407645721435547,4.649481353759766
47546,0.7340734863281251,7.882608032226563,6.2526475524902345
47621,0.5632786560058594,7.458390197753906,6.346502380371094
47679,-1.4329701232910157,9.18819305419922,3.0792466735839845
47746,-0.686173095703125,9.183103637695313,3.779490509033203
47817,0.3634442138671875,7.92077865600586,5.132077789306641
47879,-1.5561639404296876,8.579558715820314,4.7768664550781255
47945,0.20252883911132813,9.499844970703126,6.654412078857423
48017,-0.9006770324707032,9.911339263916016,7.543263702392578
48079,-1.3950988769531252,8.937913513183593,8.504414978027345
48146,-6.091283111572266,7.157066802978516,5.630241851806641
48222,-2.425705718994141,7.902217254638672,5.361849975585938
48279,-0.2609074401855469,7.419171752929688,7.401209106445313
48346,-0.9186396789550781,7.943980407714844,7.807613983154297
48416,2.525697784423828,5.256319427490235,5.751340026855469
48479,-0.5128335571289063,8.320447540283203,4.5285328674316405
48546,0.2820135498046875,9.14134048461914,5.369184722900391
48622,-2.273023223876953,10.240504760742189,3.9113662719726565
48679,-4.196074218750001,7.414232025146485,10.952274627685547
48746,0.08307723999023438,5.7754399108886725,6.843768310546875
48819,2.6963429260253906,6.79751449584961,5.991291046142578
48879,2.9331504821777346,7.931556243896485,2.9591963195800783
48946,2.0757334899902347,7.96388900756836,3.8779856872558596
49016,0.9789642333984375,7.542964324951172,6.183191986083985
49079,-0.568817138671875,8.647667083740235,4.891977081298829
49146,0.5275030517578125,8.731343078613282,6.456822967529297
49219,-0.28725265502929687,8.469387817382813,4.280947723388672
49279,-1.5355068969726564,8.169710998535157,5.4655842590332036
49346,2.241438903808594,11.122171325683594,1.494342498779297
49417,-0.4123924255371094,9.559570770263672,4.570745086669922
49479,1.2008029174804689,6.9536398315429695,7.283853149414063
49546,0.6358776855468751,6.907236328125,3.6217185974121096
49616,0.07155120849609375,10.806178436279298,6.786437530517579
49678,-1.6413368225097658,6.737489318847657,8.913963317871094
49746,-0.2177970886230469,8.443791046142579,9.12068344116211
49823,-0.7837701416015626,8.496930541992189,6.5924409484863284
49879,-0.140108642578125,7.823630676269532,4.776417388916016
49945,0.8425978088378907,6.290219421386719,5.938899993896484
50018,0.5828878784179687,7.749085693359375,4.2680744934082036
50079,2.0350181579589846,8.444090423583985,4.185895385742188
50146,-0.317340087890625,8.609346771240235,5.715714111328126
50216,-0.9704319763183594,9.33952835083008,5.8862095642089844
50279,-1.4861096191406251,10.757828979492189,7.87527328491211
50346,-0.5703140258789062,11.402987365722657,9.810149688720704
50419,-2.9228219604492187,7.284002838134766,7.283853149414063
50479,-3.395838317871094,6.3424607849121095,6.383625183105469
50546,1.5992742919921876,8.294551391601562,4.759801940917969
50619,-0.9409432983398438,8.49842742919922,4.981490936279297
50680,0.05837860107421875,8.995393981933594,4.328548736572266
50746,1.1277548217773439,8.365204467773438,5.891897735595704
50819,-1.0139913940429688,8.399932250976564,3.7808377075195314
50881,-2.9788055419921875,9.963131561279297,9.530980224609376
50946,0.2484832763671875,8.322243804931642,10.053094482421875
51017,-1.3823753356933595,7.234156494140626,7.21140380859375
51079,0.07604187011718751,7.242239685058594,6.437962188720704
51146,-2.2215303039550784,8.586743774414064,4.8791038513183596
51216,0.118553466796875,8.239016876220704,4.647385711669922
51279,-1.026415557861328,7.825277252197266,6.204597473144531
51346,2.0902532958984374,10.159373474121095,3.0424232482910156
51413,-0.5411247253417969,5.242997131347656,8.03050048828125
51479,-0.5730084228515625,7.126829681396485,4.526137847900391
51546,-0.988993377685547,10.298434295654298,5.720055084228516
51614,0.18755996704101563,8.623567199707031,5.892646179199219
51679,-0.5273533630371094,8.889863433837892,6.163882141113281
51746,-1.09931396484375,7.662565612792969,5.99757797241211
51814,-0.33141082763671875,8.161328430175782,4.82162338256836
51879,-0.6938072204589845,7.575746154785157,5.343737640380859
51946,-0.4939727783203125,7.519313507080079,5.378914489746094
52014,0.0712518310546875,8.116870880126953,5.5853352355957036
52079,-0.06870712280273437,8.585695953369141,5.909561004638672
52146,-0.21704864501953125,7.908953247070313,5.47306869506836
52214,-0.6125262451171876,8.124954071044922,5.111869812011719
52279,-0.8711883544921876,8.814420318603515,5.614823913574219
52346,-0.6004014587402344,8.023614807128906,5.75089096069336
52412,-0.771046600341797,7.512278137207032,5.464386749267579
52479,-1.4000386047363282,8.143665161132812,5.761818237304688
52546,-0.9346563720703126,7.629185028076172,6.153104553222657
52614,-0.27422973632812503,7.852370910644532,5.388644256591797
52679,-0.2375559997558594,8.146209869384766,6.318809967041016
52746,-0.13307327270507813,8.045619049072267,5.450016632080079
52813,-0.7782316589355469,7.851921844482423,5.622607727050782
52879,-0.8412506103515626,7.88679931640625,5.774242401123047
52946,-0.6445596313476563,8.239765319824219,6.125561828613281
53014,-0.4698728942871094,8.424331512451172,6.032156066894531
53079,-1.2629237365722656,7.0979397583007815,5.402415618896485
53146,-0.25656646728515625,8.181985473632812,6.391259307861328
53213,-0.9246272277832032,7.5576338195800785,6.51969223022461
53279,-0.5230123901367187,7.675588531494141,6.377487945556641
53346,-0.37317398071289065,7.632029113769532,5.650150451660156
53413,-0.5909710693359376,8.180039520263673,5.523813171386719
53479,0.31180160522460937,7.9219761657714844,5.361251220703125
53546,0.38095779418945314,8.578810272216797,5.93770248413086
53614,-0.48828460693359377,7.53233642578125,6.1119401550292976
53679,0.21555175781250002,8.63254852294922,5.492677917480469
53746,-0.5798941040039063,6.865922241210938,6.446943511962891
53815,0.45655059814453125,8.592581634521485,5.89219711303711
53879,0.08906478881835939,7.7179504394531255,5.889951782226563
53946,0.036074981689453126,8.156089324951171,5.705535278320313
54013,-0.2748284912109375,7.765850830078126,5.3774176025390625
54079,0.15941848754882812,8.647816772460938,5.688021697998047
54146,-0.18920654296875,8.443491668701173,6.196813659667969
54213,0.3608995056152344,8.33317108154297,5.809718627929688
54279,0.0335302734375,7.633076934814453,5.655239868164063
54345,0.5490582275390625,7.550748138427735,4.680616607666016
54413,0.34099090576171875,7.889793090820313,5.344336395263672
54479,-0.3514691162109375,7.886050872802735,5.518873443603516
54546,-0.37092864990234375,8.25892547607422,5.614823913574219
54613,-0.5760021972656251,8.405620422363281,5.651797027587891
54679,-0.4343966674804688,8.369246063232422,5.667664031982422
54746,0.0814306640625,8.226742401123047,5.3123030090332035
54812,-0.3339555358886719,8.262218627929688,5.579647064208984
54879,0.23082000732421876,7.974965972900391,6.186634826660157
54946,0.040415954589843754,8.205037536621095,5.269192657470703
55014,-0.4355941772460938,8.449329528808594,5.8142092895507815
55079,-0.10133926391601562,8.013885040283203,5.890700225830078
55146,-0.9198371887207032,7.679779815673829,5.431155853271485
55212,-0.4628375244140625,8.336314544677736,5.711223449707031
55279,0.5366340637207031,8.979227600097657,5.877228240966797
55346,-1.1264076232910156,7.354206848144532,4.8207252502441404
55414,0.26914031982421877,8.665929107666017,4.874613189697266
55479,0.374820556640625,8.248746643066406,3.9442977905273438
55546,0.014819183349609376,8.188721466064454,4.606520690917969
55613,0.592767333984375,8.269104309082032,5.434149627685547
55679,0.104183349609375,7.518265686035156,6.861581268310547
55746,-0.34742752075195316,7.105573883056641,5.919290771484375
55813,0.8384065246582032,8.600814514160156,4.3445654296875
55878,0.6613247680664063,9.782307586669923,5.42516830444336
55945,0.8029302978515626,6.9446585083007815,6.244714050292969
56012,-1.150806884765625,7.678582305908203,6.424340515136719
56078,-0.7014413452148438,7.463778991699219,5.685926055908204
56146,0.04819976806640625,8.967851257324218,5.626050567626954
56212,0.04685256958007813,8.369695129394533,5.6961048889160155
56279,-0.07993377685546875,7.884104919433594,6.3442570495605475
56346,-0.7640112304687501,7.975714416503907,7.1120104980468755
56413,0.3502716064453125,8.335117034912109,5.987548828125
56479,-0.28186386108398437,7.8287200927734375,6.128705291748047
56546,1.2796888732910157,8.136180725097656,5.344635772705079
56613,0.8065228271484376,7.8920384216308594,5.467979278564453
56679,-1.18074462890625,6.428232421875,6.199058990478516
56746,0.053887939453125006,7.747738494873047,6.624025268554687
56813,-0.6578819274902344,7.121889953613282,6.411467285156251
56879,1.2187655639648438,9.803862762451173,3.8369709777832033
56945,-0.585582275390625,8.351283416748048,3.8339772033691406
57013,1.8700611877441407,7.644153900146485,4.539460144042969
57078,-0.06436614990234375,7.166048126220703,6.352489929199219
57145,0.5104385375976562,7.990533599853516,5.950875091552735
57213,-0.44801834106445315,8.258177032470703,5.139262847900391
57278,-0.3338058471679688,5.938151550292969,4.644841003417969
57345,1.1190728759765625,8.848998413085939,4.286935272216797
57412,-0.0221539306640625,8.059839477539063,5.313799896240234
57478,0.9909393310546876,8.254883880615235,5.520520019531251
57545,-0.5861810302734375,7.5910144042968755,6.414311370849609
57613,2.3246658325195315,8.371341705322266,4.065096588134766
57679,-0.25626708984375,8.431067504882813,5.925877075195313
57745,-0.07918533325195314,7.746690673828126,5.910010070800782
57812,0.8425978088378907,7.158114624023438,5.191953277587891
57879,1.610351257324219,7.760761413574219,7.234904937744141
57945,1.332678680419922,6.8972071838378906,7.23101303100586
58013,-0.9633966064453126,8.163573760986328,8.129744110107422
58079,-0.49097900390625004,6.4463447570800785,4.908293151855469
58146,-0.0047900390625,9.160800018310548,6.1628343200683595
58213,-0.8388555908203126,8.607400817871094,5.25512191772461
58279,-0.9186396789550781,7.569608917236328,5.963149566650391
58346,-0.34727783203125,7.274722137451172,5.5006114196777345
58413,-0.5460644531250001,7.311545562744141,6.336173858642579
58479,0.5980064392089844,8.221203918457032,5.030139770507812
58546,0.7638615417480469,8.363108825683595,4.996310119628906
58612,-0.5444178771972656,8.900191955566406,6.8867289733886725
58679,1.7763560485839844,9.371262359619141,5.160518646240234
58746,-1.050216064453125,7.830965423583985,7.6824742126464844
58812,-0.18636245727539064,7.187154235839844,6.16522933959961
58879,-0.779578857421875,7.838000793457032,6.575526123046875
58946,-0.8448431396484375,7.208709411621094,6.59348876953125
59013,0.39592666625976564,7.303312683105469,5.475314025878906
59079,0.27617568969726564,7.317084045410157,5.564229125976563
59146,-0.5342390441894531,7.736811218261719,5.922583923339844
59214,0.12274475097656251,7.952512664794923,5.557942199707032
59279,0.37511993408203126,7.447612609863282,6.2031005859375
59346,1.3968951416015625,7.586224365234376,6.521937561035156
59413,-0.3333567810058594,7.028334503173829,6.434818725585938
59479,0.037571868896484374,7.525450744628906,6.552623748779297
59546,-0.700543212890625,7.181615753173828,6.93837158203125
59612,-0.01107696533203125,7.0344717407226565,6.183491363525391
59679,-1.102906494140625,7.7707905578613286,6.110592956542969
59746,-0.2636018371582031,7.240892486572266,6.243217163085938
59814,-0.33799713134765624,8.025860137939453,6.831194458007813
59879,0.028889923095703127,7.147486724853516,5.936954040527344
59946,0.26689498901367187,6.112239532470704,7.0940478515625
60012,1.2002041625976563,6.928342437744141,6.345753936767578
60079,0.04326004028320313,7.3866893005371095,6.197262725830078
60146,0.42242156982421875,6.922504577636719,6.232589263916016
60214,-0.44068359375000005,7.291487274169922,7.337591400146485
60279,0.024548950195312502,6.327342224121094,7.071145477294922
60345,-0.9382489013671875,7.3973171997070315,6.986721038818359
60413,0.47870452880859377,8.174501037597656,7.147037658691406
60479,0.7167095947265625,7.639064483642579,6.454427947998047
60545,0.786763916015625,7.218439178466797,6.903194732666016
60614,-0.36703674316406254,7.071145477294922,7.00588119506836
60679,-0.03188369750976563,6.992858276367188,7.215295715332031
60746,0.5691165161132813,6.939120025634766,6.906338195800782
60813,-0.6170169067382812,6.8302963256835945,7.6404116821289065
60879,-0.41882904052734377,7.364535369873047,8.085735626220703
60946,-0.41927810668945314,7.4292008972167976,6.973997497558594
61013,-0.4333488464355469,6.645879821777344,7.3128927612304695
61079,0.3992198181152344,7.37426513671875,6.320306854248047
61146,-2.199526062011719,7.291936340332032,7.751630401611329
61213,-2.023641815185547,7.759713592529297,7.80102767944336
61279,-0.36553985595703126,7.620503082275391,6.819369049072266
61346,0.6843768310546875,6.926097106933594,6.844965820312501
61414,0.08487350463867188,6.855294342041016,6.376739501953125
61479,0.40386016845703127,7.2917866516113286,6.481222229003906
61546,0.365240478515625,7.445666656494141,7.164700927734375
61614,0.46702880859375,7.094796295166016,6.1695703125
61679,-2.098935241699219,8.329279174804688,8.79346389770508
61746,-0.8729846191406251,7.629484405517578,7.070097656250001
61814,-1.4736854553222658,7.194189605712891,7.275769958496094
61879,-0.3159928894042969,6.925198974609375,6.795718231201172
61945,-0.1442999267578125,7.654183044433594,7.979456634521485
62013,-0.5700146484375,7.4555461120605475,8.497379608154297
62079,0.937500457763672,7.277117156982422,7.1420979309082036
62146,0.6391708374023438,6.142476654052735,4.887636108398437
62215,-0.28336074829101565,8.176446990966797,6.032305755615234
62279,0.9139993286132813,7.913743286132813,7.403604125976563
62346,-0.43888732910156253,7.567064208984376,7.051685943603516
62414,-2.9343479919433597,7.8692857360839845,8.384514312744141
62479,-2.3043081665039065,7.504344635009766,8.194110260009767
62546,-2.0579205322265626,7.768994293212891,7.313491516113282
62612,-2.240391082763672,7.7758799743652345,6.860084381103516
62679,-0.55564453125,6.91008041381836,5.87498291015625
62746,-0.48798522949218753,5.996380462646485,4.588558044433594
62812,-0.6035449218750001,7.119794311523438,6.302194519042969
62879,2.1971310424804686,7.118147735595704,6.364614715576172
62946,1.4479389953613282,7.419920196533203,7.418423309326172
63012,0.027692413330078127,7.667655029296875,6.681655426025391
63079,-1.6003221130371095,8.915310516357422,4.3824366760253906
63145,-1.4435980224609375,7.962092742919922,4.268822937011719
63212,-0.9270222473144532,7.7407031250000005,4.274960174560547
63279,-1.5678396606445313,7.415728912353516,4.155209197998047
63345,-2.488275604248047,7.917485504150391,4.861739959716797
63413,-1.0726693725585938,8.715326385498047,5.422623596191406
63479,-1.5895445251464844,9.286987609863282,6.705755310058594
63545,-0.9339079284667969,9.172625427246095,6.3372216796875005
63612,-2.5303381347656253,8.29829360961914,8.540939025878906
63679,-1.783092041015625,6.849007415771485,5.723198547363282
63746,-1.2002041625976563,7.301516418457032,3.4371524047851563
63812,0.17573455810546876,7.801626434326172,5.069807281494141
63879,-0.34637969970703125,8.916657714843751,6.041137390136719
63946,-0.7092251586914062,8.791068878173828,7.918233947753906
64012,-0.6640191650390626,7.403005371093751,8.029901733398438
64079,0.23665786743164063,7.275620269775391,6.926546173095703
64146,-0.6050418090820313,6.290668487548828,3.391197967529297
64212,-1.1599378967285157,7.996820526123047,5.374124450683594
64279,-2.185155944824219,6.345604248046875,7.714058532714844
64346,-1.0541079711914063,9.064999237060547,3.6913238525390626
64413,-1.7462686157226563,7.300767974853516,6.072272644042969
64479,-0.36718643188476563,8.518785095214843,7.105873260498047
64545,0.8765771484375,9.195078735351563,8.753646697998047
64613,-0.7232958984375001,8.527467041015626,9.381890258789063
64679,-0.010927276611328125,8.940458221435547,6.744225311279298
64745,-0.5495072937011719,7.236551513671875,4.470603332519532
64813,-0.03323089599609375,5.361999664306641,3.7555403137207035
64878,-1.683399353027344,7.8621006774902344,5.095404052734375
64945,0.6343807983398437,5.8721388244628905,5.902525634765626
65014,0.784368896484375,8.001610565185548,6.270460510253907
65079,1.294208679199219,8.213120727539064,5.844596099853516
65145,2.202370147705078,8.026309204101564,4.958738250732422
65212,-2.8505223083496096,8.762478332519532,5.945785675048828
65279,1.3425581359863281,8.46444808959961,4.554578704833984
65346,-2.0109182739257814,7.06770263671875,7.3058573913574225
65413,-1.1308982849121094,6.602919158935547,6.466253356933594
65479,-0.7056326293945313,8.0089453125,6.045628051757813
65546,0.8976832580566406,9.03116958618164,4.985382843017578
65613,1.0065069580078125,7.355404357910157,5.190306701660156
65679,-0.4903802490234375,6.606212310791016,4.6166995239257815
65746,-0.6301895141601562,7.044949951171875,4.264032897949219
65813,-1.26217529296875,7.8305163574218755,5.747448120117188
65879,-3.276087341308594,4.702471160888672,8.64123046875
65946,1.7155824279785157,7.844287719726563,4.640050964355469
66012,2.646197204589844,10.963052215576173,7.069199523925781
66079,-1.028511199951172,9.746531982421876,10.727891235351564
66145,1.8217117309570314,7.914192352294922,5.855223999023438
66213,-2.6012905883789066,6.572831726074219,5.6715559387207035
66279,0.3824546813964844,9.167835388183594,3.397335205078125
66345,-1.1253598022460938,9.40329574584961,2.686014404296875
66413,-2.641556854248047,8.164471893310548,3.6958145141601566
66478,-2.09564208984375,8.292605438232423,8.870104522705079
66545,2.8466304016113284,3.9020855712890627,3.669918365478516
66613,0.6938072204589845,8.876241760253906,4.8044091796875
66679,-0.32048355102539067,7.889942779541016,6.22705078125
66745,-0.929117889404297,7.8850030517578125,6.206992492675782
66813,0.6743476867675782,7.420818328857422,3.786226501464844
66879,0.17064514160156252,7.637118530273438,4.393663330078125
66946,-1.6028668212890627,10.781030731201172,6.069129180908203
67012,0.39038818359375,9.526938629150392,5.291496276855469
67079,-1.404529266357422,8.041727142333984,6.624923400878907
67146,-0.07634124755859376,7.69998779296875,6.1743603515625
67212,-0.9813592529296875,6.5942372131347655,6.405629425048828
67279,0.30416748046875003,9.355694732666016,5.878575439453125
67346,-0.39577697753906255,7.383994903564454,5.9796153259277345
67412,0.6101312255859376,7.757318572998047,7.090605010986328
67479,-0.5888754272460938,7.514074401855469,7.082970886230469
67546,-1.603315887451172,8.008047180175781,6.089786224365235
67613,0.661025390625,7.6032888793945315,5.578599243164063
67679,-0.8024812316894532,6.910978546142578,5.390739898681641
67745,-0.9583071899414063,6.337371368408204,6.984775085449219
67813,1.3980926513671876,6.798113250732422,7.339986419677735
67878,0.041912841796875,8.187673645019531,7.337591400146485
67945,2.3209236145019534,13.54473358154297,6.097570037841797
68013,-1.4614109802246094,10.39288787841797,9.525292053222657
68079,-0.9349557495117188,7.741451568603516,6.5608566284179695
68146,-0.370030517578125,5.613776092529297,5.626200256347657
68213,1.0407856750488282,4.575086059570313,7.3691757202148445
68279,0.3683839416503906,8.145760803222657,5.608237609863282
68346,-1.167721710205078,7.366930389404297,3.903582458496094
68413,0.7879614257812501,9.224417724609376,6.011648712158204
68479,0.18217117309570313,5.869594116210938,7.896379394531251
68546,-1.3437556457519533,6.355633392333985,8.80783401489258
68612,-0.9192384338378907,8.154442749023438,7.025191040039063
68679,1.3790821838378906,8.417595520019532,3.692970428466797
68746,-0.8686436462402344,7.234156494140626,5.550607452392579
68813,-0.3261717224121094,8.392896881103516,5.356610870361329
68879,1.4676979064941407,7.7109150695800786,4.888833618164063
68946,-1.146016845703125,7.952961730957032,6.006259918212891
69012,-0.789158935546875,9.181157684326172,6.366710357666016
69079,-0.10343490600585938,6.956783294677734,7.089557189941407
69146,1.3593232727050781,7.313641204833985,5.941744079589844
69212,0.10223739624023438,8.784931640625,5.360951843261719
69279,0.26689498901367187,6.6030688476562505,5.1835707092285155
69346,1.240470428466797,8.681047668457031,6.69692367553711
69413,1.4660513305664062,7.777526550292969,6.264772338867187
69479,1.3609698486328126,7.5926609802246094,5.508844299316406
69546,0.6518943786621094,8.525221710205079,5.6275474548339846
69612,4.626878356933594,5.131329345703125,5.093308410644531
69679,-3.1584320068359375,10.894345092773438,6.848558349609375
69746,-0.7048841857910156,6.659950561523438,6.371949462890625
69813,-1.7786013793945314,9.13984359741211,8.125253448486328
69879,1.606908416748047,7.17113754272461,6.016139373779297
69946,1.8137782287597657,5.734724578857422,6.943760375976563
70013,1.2858261108398439,7.295079803466797,5.634133758544922
70078,0.06900650024414062,8.367898864746094,6.3688059997558595
70146,0.5312452697753907,9.032217407226563,6.100264434814453
70212,-1.1853849792480469,5.801336059570313,6.833439788818359
70279,-0.4537065124511719,7.919132080078126,4.443958740234375
70346,5.198090515136719,9.368268585205078,7.16155746459961
70412,1.713636474609375,4.678071899414062,7.070397033691407
70479,-0.6177653503417969,7.615263977050781,7.092550964355469
70546,0.24264541625976563,7.242239685058594,6.382128295898438
70613,-2.6165588378906253,4.241429901123047,8.963959350585938
70679,1.783092041015625,9.894125061035156,5.17369125366211
70746,0.6319857788085937,6.6276177978515625,8.150850219726562
70814,-0.8415499877929687,8.513396301269532,8.083340606689454
70878,4.375550994873047,5.741460571289063,5.3313134765625
70946,-1.0731184387207031,6.958579559326172,7.190746765136719
71012,-0.08247848510742188,6.780000915527344,8.29589859008789
71079,-0.2329156494140625,7.254364471435547,7.512577514648438
71146,0.3565585327148438,6.772965545654297,7.598049774169922
71213,-0.067060546875,6.983427886962891,7.389383697509766
71279,0.46478347778320317,7.6975927734375,7.611521759033203
71346,-0.5785469055175781,6.5732807922363286,9.388775939941407
71413,-0.7731422424316406,6.587201843261719,9.172026672363282
71479,0.0544866943359375,6.8162255859375005,7.821385345458984
71546,0.7646099853515625,5.955814819335938,7.03417236328125
71613,-0.18157241821289063,7.183412017822266,8.477321319580078
71679,1.159339141845703,6.324198760986328,7.082821197509766
71746,0.4727169799804688,6.318360900878907,7.129374389648438
71814,-0.39428009033203126,6.722370758056641,8.542884979248047
71879,-0.6821315002441407,7.012018432617188,7.986641693115235
71946,1.29570556640625,6.100264434814453,6.983278198242187
72013,0.62989013671875,5.566175079345704,8.447533264160157
72079,-0.37122802734375004,7.633675689697266,6.540199584960938
72146,1.8528469848632814,6.935677185058594,5.426216125488281
72213,0.4171824645996094,7.630681915283204,6.924600219726563
72279,0.5707630920410156,7.136110382080078,8.383915557861329
72346,-0.1922003173828125,6.9216064453125,7.255561981201172
72414,0.11406280517578125,7.436685333251954,6.8232609558105475
72479,1.2407698059082033,7.2018237304687505,6.474037170410156
72546,-1.483714599609375,7.366780700683594,8.57506805419922
72614,-1.9287391662597657,7.506889343261719,8.883277130126954
72679,-2.139351196289063,6.653663635253906,7.295079803466797
72746,-2.3595433044433594,5.762117614746094,8.004903717041016
72813,2.358944549560547,6.527625732421876,8.039481811523437
72879,0.10163864135742189,7.2334080505371094,8.799002380371094
72946,1.2725038146972656,6.928641815185547,7.390431518554688
73015,-2.299069061279297,5.129682769775391,4.427343292236328
73079,7.138355712890625,6.100264434814453,2.2014720153808596
73146,3.1130763244628907,5.625002746582031,11.51330795288086
73215,-1.410516815185547,8.288563842773438,6.71847885131836
73279,-1.2340338134765625,6.152356109619141,7.835306396484375
73346,-1.059796142578125,4.695585479736328,6.814579010009766
73414,-1.6724720764160157,7.433990936279297,7.91598861694336
73479,0.32602203369140625,5.666765899658204,7.3937246704101565
73546,1.396146697998047,7.425308990478516,6.195017395019532
73614,-0.14265335083007813,7.429649963378907,6.999594268798829
73679,1.1689192199707032,8.282276916503907,6.553521881103516
73746,-1.4290782165527345,7.14239730834961,6.8813401794433595
73814,-1.0505154418945313,8.357869720458984,7.98783920288086
73879,-0.9259744262695313,8.677455139160157,6.680308227539063
73946,-2.249971160888672,7.380851440429688,6.144871673583984
74014,-1.4135105895996094,8.024363250732423,10.279124450683595
74079,-2.040257263183594,8.34230209350586,7.3217243957519536
74145,-2.262095947265625,7.695946197509766,5.267246704101563
74214,-1.4867083740234375,7.3497161865234375,5.703289947509766
74279,-1.174607391357422,6.774612121582032,5.208119659423828
74346,-2.1028271484375,6.83104476928711,5.704038391113282
74413,-2.487078094482422,7.971972198486329,6.192322998046875
74479,-2.58422607421875,8.632698211669922,5.8103173828125
74546,-2.246079254150391,7.8094102478027345,6.614145812988282
74614,-1.6301101684570314,8.247998199462891,5.949078826904297
74679,-1.9140696716308594,8.454568634033203,5.65269515991211
74746,-4.0002813720703125,7.636519775390625,6.464457092285157
74814,-0.8216413879394532,7.900271301269532,6.005511474609375
74879,-1.3642630004882814,7.045548706054688,6.1718156433105476
74946,-1.0325527954101563,8.155191192626953,4.891528015136719
75014,-2.8071125793457035,7.672295379638673,5.63113998413086
75079,-2.525099029541016,8.28482162475586,6.1065513610839846
75146,-2.5670118713378907,8.504265289306641,5.7824752807617195
75214,-1.8360818481445313,7.9849951171875,5.502108306884766
75279,-2.3496638488769532,8.009244689941406,5.627846832275391
75346,-1.7592915344238282,7.351063385009766,5.373974761962891
75414,-2.0158580017089847,7.667355651855469,5.38160888671875
75479,-2.032922515869141,7.977510681152344,5.7067327880859375
75546,-1.5732284545898438,7.899971923828125,5.305716705322266
75613,-2.0083735656738284,8.076903991699218,5.581443328857422
75679,-2.458487548828125,8.376431121826172,5.787265319824219
75745,-1.6444802856445313,8.143665161132812,5.9092616271972656
75813,-1.4509327697753907,8.150550842285156,6.501579895019532
75879,-1.6889378356933595,7.979157257080079,5.954317932128906
75946,-1.8528469848632814,7.860304412841797,5.8335191345214845
76012,-1.6616944885253908,7.595654754638672,5.27907211303711
76079,-2.1282742309570315,7.588469696044922,5.76047103881836
76146,-2.1514759826660157,7.982151031494141,5.58084457397461
76214,-2.033221893310547,8.46160400390625,6.111042022705078
76279,-2.585124206542969,8.313711547851563,5.622757415771485
76346,-1.8146763610839844,8.468639373779297,5.507048034667969
76414,-1.4994319152832032,8.547525329589844,5.428162078857422
76479,-2.2709275817871095,7.782166900634766,5.652545471191407
76546,-2.5439598083496096,7.624694366455079,5.4356465148925786
76614,-2.797532501220703,7.64295639038086,5.756878509521485
76679,-2.6632617187500003,8.127798156738281,5.910459136962891
76746,-2.7619065856933593,8.209977264404298,5.727090454101563
76813,-2.3083497619628908,8.235274658203126,5.744454345703125
76879,-1.7787510681152345,7.878865814208985,5.711822204589844
76946,-1.2181668090820312,8.760233001708984,5.794151000976563
77013,-1.4287788391113283,7.544610900878907,5.499563598632813
77079,-2.1128562927246093,8.085885314941407,5.6679634094238285
77146,-2.511926422119141,8.321944427490235,5.568719787597656
77214,-2.4504043579101564,8.084238739013673,5.488786010742188
77279,-1.9940034484863283,8.578211517333985,5.548511810302735
77346,-1.3798306274414063,8.046816558837891,5.285658416748047
77414,-1.0529104614257814,8.441994781494142,4.900359649658204
77479,-1.3034893798828127,8.96171401977539,4.807552642822266
77546,-1.357826385498047,7.936645660400391,4.365970916748047
77612,-1.9467018127441407,8.475225677490235,4.935835876464844
77679,-1.5786172485351564,9.358538818359376,5.4161869812011725
77746,-1.4292279052734376,8.991202697753907,6.011199645996094
77814,-1.70525390625,9.035959625244141,6.033652954101563
77879,-1.764979705810547,8.40981170654297,6.443650360107422
77946,-1.6724720764160157,8.453071746826172,5.661227416992188
78014,-2.533780975341797,8.647816772460938,5.567372589111328
78079,-1.6217276000976564,8.505313110351564,5.014272766113281
78146,-2.298919372558594,9.379495239257812,5.0641191101074226
78214,-0.8243357849121095,8.926836547851563,4.135599975585937
78279,-1.24541015625,8.7993017578125,4.684957580566406
78346,-1.1347901916503906,9.433083801269532,5.404211883544922
78414,-0.6486012268066407,9.458081817626953,4.353247375488282
78479,-0.9080117797851563,9.368418273925782,5.055586853027344
78546,-2.466720428466797,7.783364410400391,4.884642333984376
78614,-1.3457015991210939,8.985215148925782,4.1050634765625
78679,-0.5583389282226563,8.57222396850586,4.32345932006836
78746,-1.0559042358398438,9.239835662841797,4.442461853027344
78812,-0.48529083251953126,8.159232788085937,4.537963256835938
78879,-1.1659254455566408,8.593479766845704,5.330864410400391
78946,-1.1651770019531251,8.6460205078125,4.051624603271485
79014,-0.8397537231445313,9.396709442138672,4.204307098388672
79079,-2.4635769653320314,9.528884582519531,5.4127441406250005
79146,-1.6877403259277344,8.054750061035156,5.5131852722167976
79213,-0.6185137939453126,8.40412353515625,4.891078948974609
79279,0.004041595458984375,8.60335922241211,4.785847778320313
79346,-0.16301101684570313,8.041427764892578,4.759053497314453
79413,-1.3831237792968751,8.127498779296875,6.350993041992187
79479,-0.5587879943847657,9.131760406494141,4.301305389404297
79546,0.12963043212890626,8.532706146240235,4.813689880371094
79614,-0.31255004882812504,7.817493438720703,4.38093978881836
79679,-0.9596543884277344,8.08319091796875,4.619842987060547
79746,-1.2406201171875,8.156987457275392,4.52419189453125
79812,-0.7803273010253907,8.067174224853517,4.4017465209960935
79879,0.00029937744140625,8.679850158691407,4.953798522949219
79946,-0.8752299499511719,8.37298828125,5.588628387451172
80012,-1.5684384155273439,8.771759033203125,5.292244720458985
80079,-1.3317805480957032,9.08236312866211,4.769232330322266
80146,-0.29653335571289063,8.340056762695314,4.001179504394531
80213,-1.2328363037109376,8.556656341552735,4.545447692871094
80279,-1.474134521484375,8.84331024169922,4.275858306884766
80346,-1.7031582641601564,8.574319610595703,4.621489562988281
80413,0.2568658447265625,9.304501190185547,3.8600230407714844
80479,-0.35670822143554687,10.355016632080078,5.250182189941406
80546,-1.7456698608398438,8.649762725830078,4.703369293212891
80614,-1.0705737304687502,8.205037536621095,4.983137512207032
80679,-0.0484991455078125,8.704698486328125,4.013603668212891
80746,-0.7547305297851563,8.530311126708984,4.497098236083985
80814,-0.40505767822265626,7.540569305419922,4.077520751953125
80879,0.17214202880859375,7.85611312866211,3.5509158325195314
80946,-0.7786807250976563,8.892557830810548,5.119953002929687
81012,-0.820144500732422,8.950786743164063,5.825435943603516
81079,-0.8896000671386719,8.571176147460937,4.429588623046875
81146,0.27797195434570315,7.567213897705079,5.028044128417969
81212,-0.24593856811523437,8.04966064453125,4.035158843994141
81279,-1.64058837890625,9.069789276123048,5.010081481933594
81346,-0.5605842590332032,8.237969055175782,4.764591979980469
81413,-0.9071136474609376,7.805967407226563,4.832251281738282
81479,0.04206253051757813,8.467890930175782,3.65240478515625
81546,-0.6740483093261719,8.230334930419922,4.688999176025391
81614,-1.2551399230957032,9.489666137695313,4.8560517883300784
81679,-0.6400689697265626,8.174501037597656,5.520220642089844
81746,-0.08352630615234376,7.302115173339844,5.605992279052734
81815,-0.32811767578125,7.525450744628906,4.575086059570313
81879,-0.188009033203125,8.25278823852539,4.702321472167969
81946,-0.4827461242675781,8.834328918457032,5.0129255676269535
82013,0.12379257202148439,8.511450347900391,5.493725738525391
82079,0.15762222290039063,8.137228546142579,5.270390167236329
82146,-0.13606704711914064,7.8200381469726565,5.222938842773438
82214,-0.5194198608398438,8.02900360107422,5.77439208984375
82279,0.6173162841796875,9.260492706298828,5.110073547363282
82346,-0.45235931396484375,9.167236633300782,6.160588989257813
82413,0.19624191284179687,8.591084747314454,5.251379699707032
82479,-0.8379574584960938,7.982151031494141,7.807464294433594
82546,-2.6587710571289063,9.884395294189453,6.817123718261719
82614,-0.5348377990722657,8.650960235595704,4.727020111083984
82679,-0.4436773681640625,7.7971357727050785,5.011278991699219
82746,0.21899459838867188,8.602610778808595,5.1536329650878905
82816,-3.197500762939453,13.230986022949219,5.973328399658204
82879,0.030686187744140628,6.824608154296875,4.750371551513672
82946,0.8894503784179688,8.326584777832032,4.776567077636719
83014,0.3525169372558594,8.209228820800782,4.088897094726563
83079,0.6149212646484375,8.230783996582032,4.730013885498047
83146,-0.5019062805175781,8.716823272705078,5.702990570068359
83213,-0.046403503417968756,8.823401641845704,5.7296351623535156
83279,0.2751278686523438,8.257428588867189,3.7411701965332034
83346,-0.1442999267578125,8.209228820800782,1.6814533996582033
83413,0.20073257446289064,9.392069091796875,3.7607794189453125
83479,-0.7670050048828125,7.491471405029297,5.940396881103516
83546,0.2213896179199219,8.140821075439453,4.764591979980469
83612,0.1646575927734375,8.608448638916016,5.059179382324219
83679,0.12543914794921876,8.54348373413086,5.143903198242188
83746,-1.071471862792969,8.535101165771485,7.131619720458985
83812,2.3126907348632812,10.539582824707033,4.889731750488282
83879,-0.8481362915039063,9.119485931396484,6.234834594726562
83946,-1.850152587890625,8.211025085449219,5.195695495605469
84014,0.05598358154296875,8.245303802490234,6.338568878173828
84079,-0.31748977661132816,7.821684722900391,6.499035186767578
84146,-0.13127700805664064,8.213869171142578,5.5500086975097656
84214,0.6487509155273438,7.6633140563964846,5.991141357421875
84279,-1.888323211669922,8.229436798095703,6.383774871826172
84346,-1.1548484802246095,7.3910302734375,3.7474571228027345
84413,1.6970210266113281,9.141041107177735,4.036506042480469
84479,1.3537847900390625,8.589587860107422,3.849395141601563
84546,-0.23426284790039065,9.95983840942383,4.232149200439453
84613,-0.40356079101562503,7.597151641845704,3.2431558227539066
84679,3.179238739013672,7.283404083251954,4.404889984130859
84746,-0.5891748046875,9.23564437866211,3.75299560546875
84814,-0.6093827819824219,9.237290954589843,6.652615814208985
84879,0.03592529296875,5.5006114196777345,5.970184936523438
84946,3.5006204223632813,7.92990966796875,3.1617251586914064
85014,-2.4063958740234375,8.973988494873048,6.653963012695312
85079,0.8421487426757813,7.411837005615235,4.337979125976562
85146,-1.675316162109375,12.00189193725586,2.618355102539063
85214,-2.076182556152344,9.880054321289062,7.060367889404297
85279,-0.21450393676757815,8.778794403076173,7.780220947265625
85346,-1.3269905090332033,10.36130355834961,5.521567840576172
85414,-0.25641677856445316,6.8849327087402346,7.451504516601563
85479,-0.40131546020507813,7.858358459472656,5.593268737792969
85546,1.0912307739257814,6.220165100097657,8.120164031982423
85613,-0.6089337158203125,6.123017120361329,4.455634460449219
85679,0.5553451538085937,7.304959259033203,4.97924560546875
85746,-2.412383422851563,7.468868408203125,5.508095855712891
85814,-0.9553134155273438,10.533894653320313,5.477559356689453
85879,0.781824188232422,7.33160385131836,4.6150529479980476
85946,-1.9550843811035157,7.824977874755859,6.933731231689453
86013,-1.4685960388183594,7.445666656494141,7.611970825195313
86079,-1.1359877014160156,10.640323333740234,7.2775662231445315
86146,-0.5876779174804688,10.47626449584961,3.9939944458007814
86214,-4.56296127319336,10.056836700439453,11.09567642211914
86279,1.9631675720214845,10.223440246582031,6.424789581298828
86346,-0.33769775390625,7.073091430664062,5.1696496582031255
86414,-0.2832110595703125,6.68494857788086,4.213438110351563
86479,0.0101788330078125,10.754236450195313,4.639901275634766
86546,-0.5671705627441407,6.992708587646485,6.853797454833985
86614,-3.224744110107422,8.316256256103516,5.424120483398438
86679,-1.945953369140625,7.077133026123048,7.169341278076172
86746,-0.6936575317382813,7.875123596191407,5.224585418701172
86814,-2.4831861877441406,8.868158569335938,5.9444384765625005
86879,-0.4225712585449219,8.504864044189453,5.6432647705078125
86946,-0.8153544616699219,7.475903778076172,5.826932830810547
87014,-0.1502874755859375,7.254813537597657,7.2616992187500005
87079,-0.5219645690917969,8.698561248779297,7.112309875488282
87146,-3.1654673767089845,7.715256042480469,7.741002502441407
87214,-0.6927593994140625,6.219566345214844,4.696782989501953
87279,-0.6574328613281251,6.669979705810547,4.228856048583984
87346,-0.8872050476074219,8.452772369384766,4.303550720214844
87414,-1.9176622009277344,9.201665039062501,5.385051727294922
87479,-0.42002655029296876,7.910001068115235,4.993016967773438
87546,0.009729766845703125,7.634723510742188,5.382956085205079
87614,-1.052611083984375,7.418123931884766,7.032376098632813
87679,-0.8945397949218751,6.757248229980469,6.466403045654297
87746,-0.9463320922851562,7.8885955810546875,5.6751484680175786
87814,-0.023201751708984378,7.766150207519532,6.027964782714844
87879,-0.4589456176757813,8.983418884277345,5.722300415039062
87946,-1.287322998046875,7.769293670654298,4.97924560546875
88013,-0.4447251892089844,7.8317138671875,4.527335357666016
88079,-0.45699966430664063,7.989336090087891,6.034551086425782
88146,-2.312541046142578,8.434510345458985,5.72454574584961
88214,-0.7713459777832031,7.802973632812501,5.366939392089844
88279,-2.8252249145507813,7.655530242919922,7.2564601135253906
88346,-1.8268011474609376,8.311765594482422,6.336622924804688
88413,-1.9946022033691406,7.532186737060547,6.755451965332032
88479,-1.2091854858398439,6.862778778076172,7.452552337646485
88546,-1.747017059326172,7.043602752685548,4.003275146484375
88614,-1.592538299560547,7.471113739013672,5.927224273681641
88679,-1.2593312072753906,6.931785278320313,7.850275268554688
88746,-0.7491920471191407,8.607849884033204,7.1349128723144535
88813,-2.439177703857422,6.8638265991210945,5.533093872070313
88879,-2.423610076904297,7.027735748291016,6.693929901123047
88946,-1.1370355224609376,5.317691802978516,4.369713134765625
89014,-2.0185523986816407,8.70589599609375,7.642507324218751
89079,0.24683670043945313,7.519463195800782,6.752308502197266
89146,0.0999920654296875,7.911198577880859,7.3444770812988285
89214,-1.9975959777832033,7.160210266113282,7.377558288574219
89279,-0.3418890380859375,6.888225860595703,6.156397705078125
89346,-3.0347891235351563,9.20406005859375,5.163213043212891
89414,-1.663490753173828,8.592282257080079,5.629792785644532
89479,-1.8000068664550781,8.44813201904297,6.321654052734376
89546,-2.1647982788085938,7.311695251464844,6.745871887207032
89614,-1.9980450439453126,7.048093414306641,5.824388122558594
89679,-2.2944287109375003,7.089108123779297,5.601501617431641
89746,-1.7664765930175783,8.184380493164063,5.754782867431641
89815,-2.0576211547851564,8.412955169677735,6.430477752685547
89879,-1.9946022033691406,7.711813201904297,6.246959381103516
89946,-2.250120849609375,6.532415771484375,5.5235137939453125
90014,-2.7595115661621095,7.261399841308594,5.236410827636719
90079,-2.501897277832031,7.565717010498047,4.9231123352050785
90146,-1.3509407043457031,7.886350250244141,4.645888824462891
90214,-1.1157797241210938,7.067253570556641,5.22159164428711
90279,-2.4234603881835937,7.123536529541016,5.169350280761719
90346,-2.503843231201172,6.852899322509766,4.651277618408203
90414,-5.649102630615235,7.980953521728516,7.47964599609375
90479,-2.4801924133300783,9.720635833740236,5.479954376220704
90546,0.15522720336914064,9.563163299560548,8.669521636962891
90614,-3.9100190734863283,11.782897338867189,6.520290985107422
90679,-2.492915954589844,8.33990707397461,6.451284484863281
90746,-0.781973876953125,7.804620208740235,6.217770080566407
90816,-3.596720581054688,8.818761291503908,7.335046691894531
90879,0.21345611572265627,5.834866333007813,4.464017028808594
90946,-2.758164367675781,7.3163356018066406,4.98687973022461
91013,0.37781433105468754,5.344037017822266,5.264552307128906
91079,-2.651585998535156,7.876620483398438,3.9152581787109377
91146,-2.4478596496582035,6.8285000610351565,6.623875579833984
91214,-2.1076171875000003,6.045178985595704,5.54926025390625
91279,-1.6337026977539064,6.443800048828125,5.361700286865235
91346,-1.0240205383300782,7.687563629150391,5.349126434326172
91414,-1.1728111267089845,6.961872711181641,5.9023759460449226
91479,-1.6455281066894532,7.684719543457032,6.363866271972657
91546,-1.659598846435547,7.556286621093751,6.377038879394531
91613,-1.6051121520996094,7.514074401855469,5.934409332275391
91679,-2.1778211975097657,7.962990875244141,5.746549987792969
91746,-2.0564236450195312,7.25930419921875,5.124593353271485
91813,-1.8806890869140627,7.0380642700195315,5.186414794921875
91879,-2.1903950500488283,8.295150146484376,5.638175354003907
91946,-2.1347108459472657,7.536677398681641,5.901328125
92013,-0.08427474975585938,7.529791717529298,1.6025674438476563
92079,-1.7509089660644532,8.73897720336914,6.220165100097657
92146,-2.618804168701172,7.453450469970703,4.681065673828125
92212,-0.7673043823242188,7.4818913269042975,4.754712524414063
92279,-0.7731422424316406,7.3357951354980475,4.228856048583984
92346,0.5224136352539063,10.375973052978516,6.1963645935058596
92413,-1.733694763183594,7.756719818115235,6.000571746826172
92479,0.3399430847167969,11.325149230957031,4.883893890380859
92546,1.6275654602050782,8.383616180419923,6.067482604980469
92614,-2.3502626037597656,8.5023193359375,8.765771484375
92679,-0.025147705078125002,8.308921508789062,7.949818267822266
92746,-0.05837860107421875,7.266788635253906,7.587272186279297
92814,0.3814068603515625,10.223889312744141,4.820575561523437
92879,1.2765454101562501,8.409063262939453,2.702629852294922
92946,-0.258662109375,2.8648924255371093,4.553530883789063
93013,3.599265289306641,6.8531986999511725,7.842192077636719
93079,1.4543756103515626,6.7722171020507815,1.998494110107422
93146,-2.361339569091797,10.437345428466797,5.500761108398438
93214,0.3878434753417969,7.543862457275391,4.468956756591797
93279,2.9997619628906254,7.634723510742188,5.688321075439453
93346,-0.9081614685058594,4.634662170410157,7.039411468505859
93413,-1.8257533264160157,10.392738189697265,7.478598175048829
93479,-0.6770420837402344,8.766370239257814,7.961793365478516
93546,2.3174807739257814,8.106841735839843,6.252497863769531
93614,-0.26719436645507816,9.203760681152344,4.980293426513672
93679,-2.099533996582031,10.975775756835938,7.419620819091797
93746,0.7203021240234375,5.567073211669922,6.898853759765625
93814,-2.0844154357910156,9.000333709716797,6.818470916748047
93879,0.17019607543945314,8.60814926147461,5.204078063964844
93946,-1.1151809692382812,10.43554916381836,7.455995178222657
94014,-0.05164260864257813,9.74578353881836,5.914800109863282
94079,-0.465831298828125,9.41092987060547,5.812113647460937
94146,-0.2977308654785156,9.38503372192383,6.963818664550781
94213,0.4890330505371094,8.945248260498047,5.696553955078126
94279,-0.106578369140625,10.471624145507812,5.372328186035157
94346,0.7457492065429688,8.96306121826172,6.735543365478516
94414,0.264649658203125,8.724457397460938,6.5767236328125005
94479,-0.16510665893554688,6.8813401794433595,6.899751892089844
94546,-0.0031434631347656253,7.400460662841797,6.141578521728516
94612,1.2277468872070314,7.831564178466797,5.030738525390626
94679,0.3649411010742188,8.483757934570313,7.769593048095704
94746,-0.6975494384765626,9.949060821533203,7.104376373291016
94813,-0.016316070556640624,9.111851806640626,5.204976196289063
94879,-1.742227020263672,7.019203491210938,6.503076782226563
94946,-0.25042922973632814,8.012986907958984,6.851252746582031
95014,-0.30446685791015626,9.382339324951172,6.157295837402344
95079,-0.258662109375,7.294181671142579,5.847889251708985
95146,-0.15193405151367187,7.511080627441407,6.590195617675781
95213,1.9971469116210938,7.555089111328125,5.972879333496094
95280,-0.02005828857421875,6.815177764892579,5.718707885742187
95346,-0.4638853454589844,8.336763610839844,5.0252000427246095
95413,-0.7313790893554688,9.615554351806642,6.524631958007813
95479,-1.0005194091796876,6.919510803222656,7.265890502929688
95546,1.2585827636718752,5.66901123046875,8.248297576904298
95613,0.16301101684570313,8.11043426513672,7.391928405761719
95679,0.5635780334472656,7.786058807373047,5.307363281250001
95746,-0.07993377685546875,8.695417785644532,8.134085083007813
95813,-0.4812492370605469,8.550818481445313,8.070317687988283
95879,-0.8722361755371094,7.104526062011719,7.104226684570313
95946,0.35715728759765625,7.406597900390626,6.285429382324219
96012,0.39697448730468754,7.062912597656251,6.048172760009766
96079,-0.23710693359375,7.343878326416016,6.620283050537109
96146,0.09056167602539063,6.852899322509766,6.556964721679688
96213,-0.1878593444824219,7.084767150878907,6.243366851806641
96279,0.0029937744140625003,7.0221972656250005,6.817572784423828
96346,-0.4674778747558594,7.243886260986328,6.367309112548829
96413,-0.2639012145996094,7.684719543457032,6.310427398681641
96479,0.0041912841796875,7.137307891845704,6.266269226074219
96546,-0.06496490478515625,8.393645324707032,7.178621978759766
96613,0.39577697753906255,7.929759979248047,6.374045104980469
96679,0.2890489196777344,7.2616992187500005,6.687044219970703
96746,0.11017089843750001,7.626790008544922,6.44978759765625
96813,-0.7021897888183594,6.995702362060547,8.127049713134767
96879,-0.3945794677734375,7.480993194580079,7.6631643676757815
96946,0.6373745727539063,6.475234680175782,7.376510467529298
97012,-0.3592529296875,7.433392181396485,7.55957977294922
97079,-2.369422760009766,7.6052348327636725,4.317771148681641
97146,-0.8503816223144531,8.469836883544922,6.548582153320313
97213,0.5457650756835938,7.804470520019532,6.238726501464844
97279,-0.19354751586914062,8.074209594726563,4.720134429931641
97346,0.6048921203613281,8.451574859619141,5.897286529541016
97413,-1.5376025390625,7.590565338134766,7.77183837890625
97479,-0.04924758911132813,7.4642280578613285,7.1313203430175784
97546,1.1796968078613281,7.335944824218751,8.084089050292969
97613,-2.059567108154297,8.93866195678711,7.697443084716797
97679,-0.3203338623046875,7.148384857177735,8.240214385986329
97746,0.7932005310058594,6.384523315429687,6.709647216796875
97813,-0.2692900085449219,7.5488021850585945,6.944059753417969
97879,0.8527766418457031,7.109166412353516,6.1065513610839846
97946,0.5125341796875,7.498656463623047,6.484814758300781
98013,0.8461903381347656,7.403304748535157,7.298672332763672
98079,0.8523275756835937,6.6418382263183595,7.958949279785156
98146,0.7616162109375001,6.774312744140626,7.61945526123047
98212,0.8370593261718751,7.2916369628906255,7.402256927490234
98280,0.7334747314453125,6.47658187866211,6.874604187011719
98346,1.085991668701172,7.074139251708985,7.014263763427735
98412,1.4826667785644532,7.2370005798339845,7.218738555908203
98479,0.8464897155761719,6.791976013183594,7.002288665771485
98546,0.16106506347656252,7.361691284179688,5.826633453369141
98613,0.42032592773437505,7.32202377319336,4.407883758544922
98679,2.7692413330078125,6.382128295898438,3.830534362792969
98746,0.4070036315917969,8.121660919189454,5.804329833984375
98814,0.5996530151367188,8.376580810546875,5.455255737304688
98879,0.08457412719726563,9.00138153076172,5.597759399414063
98946,-0.6051914978027344,7.555388488769531,5.785618743896484
99013,6.071973266601563,11.097173309326173,4.355043640136719
99079,-0.1932481384277344,7.999365234375,11.623927917480469
99146,0.21540206909179688,5.250331878662109,8.16072967529297
99212,-0.8244854736328125,2.757864990234375,2.1677920532226564
99279,-1.0090516662597657,10.340496826171876,6.024521942138672
99346,0.8472381591796876,6.585106201171875,2.707419891357422
99412,2.322570190429688,8.15504150390625,8.011190643310547
99479,-0.06421646118164062,8.129744110107422,8.413404235839844
99546,4.999154205322266,9.805958404541016,6.519991607666016
99613,-0.9672885131835938,8.499175872802734,8.935967559814454
99679,-0.9457333374023438,4.675976257324219,6.789730682373047
99746,0.5605842590332032,8.239016876220704,3.2489936828613284
99817,2.4182212829589846,7.513924713134766,5.179229736328125
99879,5.379962310791016,8.099656677246093,2.9621900939941406
99946,2.9560528564453126,6.5909440612792976,3.546574859619141
100013,0.11990066528320313,8.896300048828126,5.878575439453125
100079,0.5266049194335938,8.491691436767578,5.88216796875
100146,-0.3626957702636719,9.051377563476564,5.985303497314454
100212,1.5844551086425782,8.468489685058595,5.6398219299316406
100279,3.4696348571777347,8.578660583496093,6.076912994384766
100346,2.801274719238281,8.031398620605469,5.078339538574219
100412,2.93150390625,7.752229156494141,5.4832475280761726
100479,2.2194346618652343,7.9784088134765625,4.5391607666015625
100546,1.7619859313964845,7.682773590087891,4.607568511962891
100612,1.572330322265625,8.228089599609376,4.740342407226563
100679,1.2383747863769532,8.535699920654297,4.984933776855469
100746,2.084864501953125,9.168434143066406,4.994813232421875
100812,1.810485076904297,8.416697387695313,4.901557159423828
100879,1.8525476074218752,8.245752868652344,5.6187158203125005
100946,1.7034576416015625,8.20339096069336,5.400619354248047
101013,1.3349240112304688,7.8023748779296875,5.1572254943847655
101079,2.1318667602539065,8.56653579711914,4.969815216064453
101146,2.082170104980469,7.870782623291016,5.139113159179688
101214,1.157842254638672,8.246950378417969,5.114564208984375
101279,1.4162049865722657,7.842641143798828,4.492757263183594
101346,0.8366102600097657,8.051606597900392,5.038522338867188
101412,0.6523434448242188,8.23931625366211,5.066514129638672
101479,0.17483642578125,8.518635406494141,5.450016632080079
101546,1.430724792480469,8.571625213623047,5.113516387939454
101613,1.1859837341308594,8.14067138671875,5.4003199768066406
101679,1.2341835021972656,8.216563568115236,4.9195198059082035
101746,0.041613464355468754,8.02660858154297,5.403613128662109
101812,0.40954833984375,8.139024810791016,6.470744018554687
101879,0.781824188232422,8.039781188964843,5.212909698486328
101946,0.21151016235351563,8.19336181640625,4.990322570800782
102013,0.16989669799804688,8.099656677246093,5.6928117370605476
102079,1.1056008911132813,7.835306396484375,4.776417388916016
102146,1.5142510986328126,8.339158630371093,4.0935374450683595
102213,-0.8099656677246094,9.743538208007813,6.532415771484375
102279,1.1707154846191408,9.622440032958984,4.701573028564454
102346,0.18636245727539064,8.750503234863281,6.070775756835938
102414,0.27033782958984376,8.941655731201172,5.134173431396484
102479,0.8170010375976563,9.155111846923829,5.061424713134766
102546,0.6954537963867188,7.995772705078125,5.375471649169922
102613,-0.19100280761718752,8.026907958984376,5.808072052001953
102679,0.7232958984375001,8.01942352294922,4.860542449951172
102746,-0.7728428649902345,8.481811981201172,5.20437744140625
102812,-0.7816744995117187,8.29589859008789,7.1242849731445315
102879,3.0597871398925784,8.731492767333984,7.023095397949219
102946,2.017654266357422,9.402996368408203,6.5327151489257815
103014,2.3200254821777344,8.522078247070313,5.544021148681641
103079,-0.6724017333984376,6.731202392578125,5.739215240478516
103146,-1.2795391845703126,7.665709075927735,5.985902252197266
103213,-1.5244299316406251,7.615263977050781,6.647077331542969
103279,0.29937744140625,9.01679946899414,4.939428405761719
103346,0.5047503662109375,8.296347656250001,6.1222686767578125
103414,0.45834686279296877,7.5064402770996095,4.92700424194336
103479,-0.18920654296875,8.01328628540039,6.480623474121094
103546,-0.024548950195312502,7.6508898925781255,5.29344223022461
103612,-0.5917195129394531,7.6387651062011726,5.337600402832032
103679,-0.20148101806640625,8.035440216064453,6.350843353271484
103746,-0.44786865234375,7.907156982421875,6.012097778320313
103812,0.3806584167480469,8.784931640625,5.67904037475586
103879,0.9535171508789063,7.289541320800781,5.61197982788086
103945,0.6225553894042969,8.113727416992187,6.206992492675782
104012,0.9632469177246095,7.286996612548829,5.383854217529297
104079,-0.31449600219726564,7.430398406982422,6.376589813232422
104146,0.5191204833984375,6.949598236083984,6.03110824584961
104214,0.5575904846191406,7.637268218994141,6.496939544677734
104279,0.1826202392578125,8.179141387939454,6.551126861572266
104346,0.08666976928710939,7.928861846923828,6.287674713134766
104414,-0.0029937744140625003,7.68367172241211,6.117927703857422
104479,1.0969189453125001,8.070916442871095,5.975424041748047
104546,0.6429130554199219,7.9960720825195315,6.115682373046876
104612,0.06511459350585938,7.7585160827636726,5.926326141357422
104679,0.6306385803222656,8.348888397216797,6.010600891113282
104746,0.06182144165039063,8.218210144042969,6.699019317626954
104812,-0.5120851135253907,7.960146789550782,5.999673614501954
104879,-0.04415817260742188,8.39933349609375,5.474415893554688
104946,-0.03861968994140625,7.661218414306641,5.131778411865235
105012,-0.8532257080078125,7.78186752319336,5.498066711425782
105079,-0.13442047119140627,7.622299346923828,5.752986602783204
105146,-0.22632934570312502,8.637488250732423,4.906796264648437
105214,-0.12708572387695313,7.763755187988282,5.587879943847657
105279,0.6872209167480469,9.270521850585938,4.692741394042969
105346,1.6594491577148438,7.921676788330078,5.9989251708984375
105413,-1.5919395446777345,7.567962341308594,7.235054626464844
105479,0.4700225830078125,8.293353881835937,6.640041961669922
105546,-0.866847381591797,8.10759017944336,5.420527954101563
105614,-0.7599696350097657,7.382797393798828,5.103337554931641
105679,0.1920506286621094,7.853119354248047,5.952821044921875
105746,0.5348377990722657,7.943681030273438,5.824986877441407
105815,1.2124786376953125,7.9626914978027346,6.487509155273438
105879,0.40011795043945314,8.539741516113281,5.979016571044922
105946,0.06691085815429688,7.91359359741211,5.126389617919922
106013,-0.8030799865722656,8.001311187744141,5.7649617004394536
106079,-0.8596623229980469,8.597970428466798,4.974754943847657
106146,-0.7095245361328125,8.454718322753907,6.134543151855469
106213,0.011226654052734375,8.049960021972657,5.855523376464844
106279,-0.6402186584472657,7.896229705810547,6.2385768127441406
106346,0.017513580322265625,8.152945861816407,5.588628387451172
106412,0.5318440246582031,7.844886474609376,6.341113586425782
106479,0.2213896179199219,8.175997924804689,6.274801483154297
106546,0.4186793518066406,7.789651336669922,6.032904510498047
106614,-0.8087681579589844,7.602540435791016,6.008505249023438
106679,-0.7120692443847657,7.365283813476563,5.376968536376953
106746,-0.5140310668945313,7.777526550292969,6.178252258300781
106814,-0.8922944641113282,8.165370025634767,6.756948852539063
106879,0.40131546020507813,8.161927185058595,6.421795806884766
106946,0.3814068603515625,8.130043487548829,5.701942749023438
107014,0.18097366333007814,8.292306060791017,6.038442993164063
107079,0.4962181091308594,7.923772430419922,6.02392318725586
107146,0.08232879638671875,7.729476470947266,6.542145538330079
107213,0.5867797851562501,7.919132080078126,6.188131713867188
107279,0.05822891235351563,7.4678205871582035,6.6577052307128906
107346,-0.07918533325195314,7.827971649169922,6.662644958496094
107414,-0.42646316528320316,7.840246124267579,6.191873931884766
107479,-0.6595285034179688,7.401658172607422,6.166127471923828
107546,-0.19474502563476564,7.427853698730469,6.354585571289062
107612,-0.4219725036621094,7.729476470947266,6.0095530700683595
107679,0.037571868896484374,8.054600372314454,5.841302947998047
107746,-0.1389111328125,7.894882507324219,6.614295501708985
107813,-0.4631369018554688,7.814948730468751,6.535259857177735
107879,-0.38739440917968754,7.611072692871094,6.501430206298829
107946,-0.18037490844726564,7.6808276367187505,6.31851058959961
108014,-0.29458740234375,7.557933197021485,6.740034027099609
108079,-0.2552192687988281,7.663463745117188,6.3900617980957035
108146,-0.4998106384277344,7.520061950683594,6.413113861083985
108213,-0.290994873046875,7.621550903320313,6.082301788330079
108279,-0.09864486694335937,7.765850830078126,5.837860107421875
108346,-0.5334906005859376,7.692653045654297,6.343807983398438
108412,-0.039966888427734375,8.024063873291016,5.956263885498047
108479,-0.13576766967773438,8.009244689941406,6.202501831054688
108546,-0.0209564208984375,8.031548309326173,5.975873107910156
108613,-0.2327659606933594,7.886649627685547,5.857319641113282
108679,-0.27617568969726564,7.6685531616210945,5.988896026611329
108746,-0.13307327270507813,7.715705108642578,6.102210388183594
108816,-0.18531463623046876,7.821684722900391,6.133495330810547
108879,-0.10762619018554688,7.913892974853516,5.894891510009766
108946,-0.12603790283203126,7.730673980712891,6.009253692626953
109014,-0.19294876098632813,7.84413803100586,6.028713226318359
109079,-0.22243743896484375,7.864795074462891,5.831273803710938
109146,-0.2034269714355469,7.813152465820313,5.917494506835938
109212,-0.16540603637695314,7.904163208007813,5.908213806152344
109279,-0.2881507873535156,7.909252624511719,5.86106185913086
109346,-0.2797682189941406,8.04097869873047,5.742658081054688
109412,-0.33215927124023437,8.433163146972657,5.326224060058594
109479,-0.23441253662109376,8.61817840576172,4.828059997558594
109546,-0.27303222656250004,8.621621246337892,4.608017578125001
109612,-0.31030471801757814,8.475974121093751,4.69663330078125
109679,-0.23067031860351564,8.311915283203126,4.788542175292969
109746,-0.25581802368164064,8.420888671875,4.800517272949219
109813,-0.23171813964843752,8.710386657714844,4.784350891113282
109879,-0.3291654968261719,8.649613037109376,4.930297393798829
109946,-0.22109024047851564,8.516689453125,5.0392707824707035
110014,-0.25641677856445316,8.62925537109375,4.871769104003906
110079,-0.229921875,8.665480041503907,4.803810424804688
110146,-0.2520758056640625,8.54677688598633,4.907544708251954
110214,-0.19833755493164062,8.556057586669922,4.86428466796875
110279,-0.33066238403320314,8.612490234375,4.8596443176269535
110346,-0.3046165466308594,8.589288482666015,4.858895874023438
110413,-0.22782623291015627,8.513545989990234,4.814887390136719
110479,-0.18905685424804688,8.556356964111329,4.785398712158203
110546,-0.2881507873535156,8.560847625732423,4.850064239501953
110614,-0.34443374633789064,8.568032684326173,4.887187042236328
110679,-0.2962339782714844,8.560997314453125,4.790637817382812
110746,-0.25417144775390627,8.591084747314454,4.795427856445313
110812,-0.15522720336914064,8.525371398925781,4.9389793395996096
110879,-0.20806732177734377,8.530760192871094,4.807852020263672
110946,-0.30177246093750004,8.513545989990234,4.781806182861328
111013,-0.29608428955078125,8.584049377441406,4.85275863647461
111079,-0.1872605895996094,8.531358947753906,4.893773345947266
111146,-0.22019210815429688,8.541537780761718,4.787793731689454
111212,-0.31674133300781254,8.580007781982422,4.801116027832031
111279,-0.1818717956542969,8.524024200439454,4.9144303894042976
111346,-0.23740631103515628,8.51908447265625,4.838687896728516
111414,-0.2363584899902344,8.51429443359375,4.778213653564453
111479,-0.13980926513671876,8.5214794921875,4.969515838623047
111546,-0.20552261352539064,8.51429443359375,4.858596496582032
111614,-0.29683273315429687,8.513096923828126,4.813839569091797
111679,-0.2806663513183594,8.570427703857423,5.058430938720703
111746,-0.19953506469726565,8.535999298095703,4.940326538085937
111814,-0.22947280883789065,8.554261322021485,4.813540191650391
111879,-0.34623001098632816,8.570128326416016,5.006788330078125
111946,-0.159268798828125,8.488697662353516,4.947361907958984
112013,-0.20028350830078126,8.495433654785156,4.844825134277344
112079,-0.18217117309570313,8.52671859741211,4.752766571044922
112146,-0.13457015991210938,8.512049102783203,5.0145721435546875
112214,-0.21585113525390626,8.527766418457032,4.943470001220703
112279,-0.3203338623046875,8.542136535644532,4.85275863647461
112346,-0.2851570129394531,8.57506805419922,4.994214477539063
112414,-0.137713623046875,8.491392059326172,4.941823425292969
112479,-0.19549346923828126,8.52432357788086,4.844076690673829
112546,-0.3373983764648438,8.563991088867187,5.007087707519531
112614,-0.16705261230468751,8.479716339111329,4.960983581542969
112679,-0.17977615356445314,8.51908447265625,4.899611206054688
112746,-0.20657043457031252,8.536448364257813,4.774022369384766
112813,-0.12289443969726563,8.562494201660156,5.012326812744141
112879,-0.1742376708984375,8.542286224365235,4.908592529296875
112946,-0.2770738220214844,8.574918365478515,4.844525756835938
113014,-0.26764343261718754,8.606053619384767,5.0481024169921875
113079,-0.09954299926757813,8.505462799072266,4.9687673950195315
113146,-0.17034576416015626,8.525820465087891,4.906047821044922
113212,-0.17962646484375,8.502918090820312,4.994364166259766
113279,-0.18621276855468752,8.480165405273437,5.049299926757813
113346,-0.15597564697265626,8.48600326538086,4.9581394958496094
113414,-0.1525328063964844,8.473130035400391,4.799469451904297
113479,-0.11570938110351563,8.538843383789063,5.016667785644532
113546,-0.14325210571289063,8.473130035400391,4.970264282226562
113613,-0.19878662109375,8.490643615722657,4.872218170166016
113680,-0.21285736083984377,8.527017974853516,5.015919342041016
113746,-0.1035845947265625,8.493787078857423,4.999154205322266
113813,-0.13636642456054687,8.489595794677735,4.897365875244141
113879,-0.22498214721679688,8.549920349121095,5.009033660888672
113946,-0.1968406677246094,8.510103149414062,5.03912109375
114013,-0.162861328125,8.465944976806641,4.969216461181641
114080,-0.15178436279296875,8.489895172119141,4.998106384277344
114146,-0.13307327270507813,8.539591827392579,5.002896423339844
114214,-0.13651611328125002,8.482410736083985,4.971761169433594
114279,-0.1872605895996094,8.458909606933593,4.989873504638672
114346,-0.228724365234375,8.56982894897461,5.049748992919922
114412,-0.10328521728515626,8.507558441162109,4.989723815917969
114480,-0.12184661865234375,8.468190307617188,4.9108378601074225
114546,-0.23022125244140626,8.55650665283203,4.971162414550782
114614,-0.1676513671875,8.506959686279297,5.040767669677734
114679,-0.13546829223632814,8.470585327148438,4.9723599243164065
114746,-0.21615051269531252,8.601413269042968,5.0039442443847655
114813,-0.15642471313476564,8.536598052978515,4.962330780029297
114879,-0.13112731933593752,8.491841125488282,5.006938018798828
114946,-0.18456619262695315,8.483308868408203,4.994962921142578
115012,-0.20447479248046876,8.558602294921876,5.0356782531738284
115079,-0.13412109375,8.527916107177735,4.995112609863281
115146,-0.106578369140625,8.485853576660157,4.924309844970703
115212,-0.25896148681640624,8.624465332031251,5.005141754150391
115279,-0.1802252197265625,8.522826690673828,5.033133544921875
115346,-0.1359173583984375,8.494535522460938,4.978646850585938
115414,-0.12109817504882812,8.460556182861328,5.014422454833984
115479,-0.20252883911132813,8.561596069335938,5.0055908203125
115546,-0.14280303955078125,8.512198791503907,5.0129255676269535
115613,-0.14953903198242188,8.480464782714844,5.036277008056641
115679,-0.23561004638671876,8.554111633300781,5.029241638183594
115746,-0.14220428466796875,8.494685211181642,5.011877746582032
115813,-0.15058685302734376,8.505013732910157,4.928650817871094
115879,-0.23680755615234375,8.58135498046875,5.022655334472656
115946,-0.23875350952148439,8.488847351074218,5.029690704345703
116013,-0.11645782470703125,8.491092681884766,4.959786071777344
116079,-0.23740631103515628,8.60530517578125,5.004692687988282
116146,-0.16196319580078125,8.574020233154297,5.009183349609375
116213,-0.15702346801757813,8.51384536743164,5.0022976684570315
116279,-0.2938389587402344,8.589587860107422,5.002746734619141
116346,-0.20552261352539064,8.577313385009766,5.050198059082032
116414,-0.1299298095703125,8.527916107177735,5.003345489501953
116479,-0.25297393798828127,8.612789611816407,4.9759524536132815
116546,-0.23620880126953125,8.576265563964844,5.0055908203125
116614,-0.1772314453125,8.503217468261719,5.036127319335938
116679,-0.14325210571289063,8.477321319580078,5.028942260742188
116746,-0.21091140747070314,8.592132568359375,4.982239379882813
116814,-0.18276992797851563,8.537645874023438,5.016218719482422
116879,-0.15552658081054688,8.487051086425781,4.971461791992188
116946,-0.29309051513671874,8.554411010742188,5.024301910400391
117012,-0.14145584106445314,8.508905639648438,5.009482727050782
117079,-0.11301498413085938,8.492140502929688,4.964276733398438
117146,-0.28635452270507816,8.617280273437501,4.9952622985839845
117212,-0.2118095397949219,8.560847625732423,5.032983856201172
117279,-0.13666580200195313,8.493338012695313,5.025499420166016
117346,-0.13007949829101564,8.46205307006836,5.024900665283203
117414,-0.19399658203125,8.595126342773439,5.0042436218261726
117479,-0.19055374145507814,8.560847625732423,5.038073272705079
117546,-0.15103591918945314,8.478518829345704,4.990921325683594
117614,-0.26914031982421877,8.590186614990234,5.003046112060547
117679,-0.15717315673828125,8.566086730957032,5.022505645751953
117746,-0.11840377807617188,8.474327545166016,4.989125061035156
117813,-0.3330574035644531,8.593330078125,4.998256072998047
117879,-0.2556683349609375,8.575367431640625,5.038821716308594
117946,-0.13067825317382814,8.488098907470704,5.013674011230469
118014,-0.12843292236328124,8.488847351074218,5.002896423339844
118079,-0.19354751586914062,8.585097198486329,4.978048095703126
118146,-0.17064514160156252,8.517587585449219,4.994214477539063
118214,-0.16046630859375,8.475225677490235,4.978197784423829
118279,-0.2621049499511719,8.564140777587891,4.983586578369141
118346,-0.15103591918945314,8.563392333984375,4.998256072998047
118414,-0.15148498535156252,8.527017974853516,4.977748718261719
118479,-0.29219238281250004,8.596323852539063,4.9758027648925784
118546,-0.2547702026367188,8.566835174560547,5.0374745178222655
118612,-0.16181350708007813,8.504714355468751,5.021158447265625
118679,-0.28216323852539066,8.59662322998047,4.9689170837402346
118746,-0.22109024047851564,8.58419906616211,4.965025177001953
118813,-0.19145187377929687,8.539442138671875,5.050497436523438
118879,-0.30985565185546876,8.610095214843751,4.987777862548828
118946,-0.239501953125,8.5693798828125,4.980742492675781
119014,-0.12948074340820312,8.535550231933595,4.993166656494141
119079,-0.29338989257812503,8.624315643310547,4.997956695556641
119146,-0.26719436645507816,8.565338287353516,4.964426422119141
119213,-0.1981878662109375,8.54108871459961,5.014422454833984
119279,-0.1167572021484375,8.459957427978516,4.960833892822266
119346,-0.238304443359375,8.591683502197267,4.965474243164063
119414,-0.16795074462890625,8.560697937011719,4.982239379882813
119479,-0.18411712646484377,8.465944976806641,4.976551208496094
119546,-0.3092568969726563,8.583001556396486,4.990172882080079
119614,-0.18815872192382813,8.551866302490234,4.988526306152344
119679,-0.13187576293945313,8.527317352294922,5.0058901977539065
119746,-0.3046165466308594,8.60335922241211,4.975353698730469
119814,-0.26764343261718754,8.612490234375,5.023852844238282
119879,-0.19504440307617188,8.527317352294922,5.029840393066406
119946,-0.108973388671875,8.467741241455078,5.009033660888672
120013,-0.22243743896484375,8.589288482666015,4.971312103271485
120079,-0.1884580993652344,8.584049377441406,4.999303894042969
120146,-0.16720230102539063,8.518785095214843,4.979844360351563
120213,-0.30716125488281254,8.612340545654297,4.989873504638672
120279,-0.19773880004882813,8.593479766845704,5.011278991699219
120346,-0.10702743530273438,8.50516342163086,4.980443115234375
120412,-0.3212319946289063,8.59422821044922,5.0042436218261726
120479,-0.2571652221679688,8.544082489013672,5.002597045898438
120546,-0.1734892272949219,8.52387451171875,5.01561996459961
120612,-0.28725265502929687,8.616831207275391,5.004393310546876
120679,-0.24459136962890626,8.581953735351563,4.9952622985839845
120746,-0.21540206909179688,8.521629180908203,5.035229187011719
120815,-0.19968475341796876,8.530460815429688,4.995411987304688
120879,-0.27333160400390627,8.584049377441406,4.993166656494141
120946,-0.16675323486328125,8.52716766357422,5.0163684082031255
121014,-0.14040802001953126,8.536897430419922,5.025948486328125
121080,-0.2871029663085938,8.573122100830078,4.963827667236329
121146,-0.2197430419921875,8.576714630126954,5.019661560058594
121216,-0.14474899291992188,8.497678985595703,5.029391326904297
121279,-0.28949798583984376,8.641380157470703,5.0145721435546875
121346,-0.2424957275390625,8.577463073730469,5.006189575195313
121414,-0.18965560913085938,8.506510620117188,5.031037902832032
121480,-0.31674133300781254,8.577463073730469,4.984784088134766
121546,-0.223934326171875,8.613238677978517,5.0006510925292975
121614,-0.15837066650390627,8.554860076904298,5.017715606689453
121679,-0.16435821533203127,8.526568908691406,5.041366424560547
121746,-0.32901580810546877,8.613238677978517,4.994513854980469
121814,-0.20252883911132813,8.554111633300781,4.996160430908203
121879,-0.07708969116210938,8.490942993164063,5.012476501464844
121946,-0.2636018371582031,8.603209533691407,5.009033660888672
122013,-0.29234207153320313,8.618028717041016,5.018613739013672
122079,-0.20552261352539064,8.52626953125,5.045408020019532
122146,-0.3296145629882813,8.596922607421876,5.026098175048828
122214,-0.2293231201171875,8.61967529296875,5.023852844238282
122279,-0.17603393554687502,8.570427703857423,5.0003517150878904
122346,-0.178428955078125,8.499624938964844,5.0287925720214846
122413,-0.329315185546875,8.582402801513672,4.990172882080079
122480,-0.20851638793945312,8.584648132324219,5.042114868164063
122546,-0.10163864135742189,8.493787078857423,4.999303894042969
122612,-0.3008743286132813,8.592132568359375,4.996310119628906
122679,-0.27378067016601565,8.58419906616211,5.0181646728515625
122746,-0.1838177490234375,8.530909881591798,5.0302894592285154
122812,-0.3674858093261719,8.591683502197267,5.025948486328125
122879,-0.22632934570312502,8.599018249511719,4.990172882080079
122945,-0.17393829345703127,8.543633422851563,4.990172882080079
123012,-0.3394940185546875,8.616531829833985,4.994813232421875
123079,-0.3129991149902344,8.597521362304688,4.988526306152344
123146,-0.22288650512695313,8.550070037841797,5.0322354125976565
123213,-0.33126113891601566,8.509354705810548,5.04675521850586
123279,-0.28755203247070316,8.597521362304688,4.95574447631836
123346,-0.2848576354980469,8.562344512939454,5.009033660888672
123413,-0.18965560913085938,8.525371398925781,5.030439147949219
123479,-0.3138972473144531,8.569230194091798,4.9882269287109375
123546,-0.22528152465820314,8.579259338378908,4.981640625
123613,-0.1932481384277344,8.558003540039063,5.015320587158203
123679,-0.3454815673828125,8.583300933837892,5.010231170654297
123746,-0.316142578125,8.573870544433595,4.968018951416016
123813,-0.2130070495605469,8.537645874023438,5.038821716308594
123880,-0.1634600830078125,8.557554473876953,5.048401794433594
123946,-0.26180557250976566,8.631500701904297,4.954397277832031
124015,-0.23201751708984375,8.567134552001953,4.9846343994140625
124080,-0.1826202392578125,8.525970153808593,5.079387359619141
124146,-0.3333567810058594,8.636739807128906,5.021008758544922
124213,-0.21345611572265627,8.583300933837892,4.962330780029297
124280,-0.1682501220703125,8.536148986816407,5.00603988647461
124346,-0.34787658691406254,8.607849884033204,5.013524322509766
124414,-0.31988479614257814,8.593330078125,4.987927551269531
124479,-0.1850152587890625,8.55261474609375,5.000950469970704
124546,-0.32063323974609376,8.657696228027344,5.0638197326660155
124615,-0.2647993469238281,8.637637939453125,4.956193542480469
124680,-0.2782713317871094,8.539292449951173,4.961282958984375
124746,-0.1968406677246094,8.511600036621093,5.055736541748047
124813,-0.2963836669921875,8.590785369873048,5.009183349609375
124879,-0.22483245849609376,8.595874786376953,4.961432647705078
124946,-0.2034269714355469,8.591833190917969,5.03957015991211
125014,-0.3418890380859375,8.625513153076172,5.0039442443847655
125080,-0.31913635253906253,8.58180404663086,4.994364166259766
125146,-0.19549346923828126,8.559201049804688,5.016218719482422
125213,-0.3309617614746094,8.614136810302735,5.058880004882813
125280,-0.3224295043945313,8.609795837402345,4.980443115234375
125346,-0.28380981445312503,8.584498443603517,5.0145721435546875
125413,-0.3854484558105469,8.583450622558594,5.06831039428711
125480,-0.33784744262695315,8.638985137939454,5.007985839843751
125546,-0.21285736083984377,8.580756225585938,4.956193542480469
125615,-0.192799072265625,8.547974395751954,5.007836151123047
125679,-0.3511697387695313,8.592431945800781,5.00124984741211
125746,-0.3131488037109375,8.56219482421875,4.989873504638672
125813,-0.16780105590820313,8.570577392578125,5.005441131591797
125879,-0.3469784545898438,8.661288757324218,5.0630712890625
125946,-0.32781829833984377,8.622220001220704,4.997208251953126
126013,-0.2893482971191406,8.560248870849609,5.0180149841308594
126079,-0.36539016723632817,8.637039184570312,5.073998565673828
126146,-0.31449600219726564,8.565787353515626,5.001698913574219
126214,-0.23875350952148439,8.560099182128907,4.975054321289063
126280,-0.3138972473144531,8.57551712036133,5.0302894592285154
126346,-0.32482452392578126,8.594078521728516,4.998256072998047
126415,-0.22303619384765627,8.59377914428711,4.996609497070312
126479,-0.14819183349609374,8.523126068115236,5.087919616699219
126546,-0.30072463989257814,8.615484008789062,4.98927474975586
126613,-0.26914031982421877,8.563392333984375,4.9758027648925784
126680,-0.21989273071289064,8.530610504150392,5.024451599121094
126746,-0.3297642517089844,8.608897705078125,5.00843490600586
126816,-0.239501953125,8.573421478271484,4.957840118408203
126879,-0.2436932373046875,8.569679260253906,5.0286428833007815
126946,-0.3501219177246094,8.604107666015626,5.029990081787109
127013,-0.30027557373046876,8.581055603027345,4.9600854492187505
127079,-0.1986369323730469,8.564739532470703,4.980143737792969
127146,-0.3465293884277344,8.508306884765625,5.091661834716797
127214,-0.30895751953125,8.586294708251954,4.964276733398438
127280,-0.23650817871093752,8.594976654052735,4.9636779785156255
127346,-0.16001724243164064,8.513545989990234,5.062472534179688
127413,-0.32811767578125,8.610843658447266,5.007686462402344
127480,-0.24818389892578127,8.61293930053711,4.96487548828125
127546,-0.18127304077148437,8.52237762451172,4.991071014404297
127616,-0.16181350708007813,8.506809997558594,4.994214477539063
127680,-0.28725265502929687,8.568631439208986,4.965623931884766
127746,-0.1945953369140625,8.549620971679689,4.994214477539063
127814,-0.128133544921875,8.52103042602539,5.009183349609375
127880,-0.27198440551757813,8.55650665283203,4.939727783203125
127946,-0.22438339233398438,8.537945251464844,4.995411987304688
128014,-0.18411712646484377,8.481662292480468,5.020260314941407
128079,-0.3031196594238281,8.548423461914062,4.918322296142579
128146,-0.23456222534179688,8.573421478271484,4.987777862548828
128213,-0.19399658203125,8.545130310058594,5.0109796142578125
128280,-0.31449600219726564,8.560997314453125,4.953499145507813
128346,-0.2824626159667969,8.618627471923828,4.9687673950195315
128413,-0.17094451904296876,8.537645874023438,4.976700897216797
128480,-0.329315185546875,8.562943267822266,4.99406478881836
128546,-0.27273284912109375,8.539292449951173,4.924908599853516
128613,-0.22438339233398438,8.55306381225586,4.98927474975586
128680,-0.3573069763183594,8.529862060546876,5.011278991699219
128746,-0.2963836669921875,8.592132568359375,4.9160769653320315
128814,-0.21390518188476565,8.580007781982422,4.968617706298828
128879,-0.1981878662109375,8.540939025878906,4.99406478881836
128946,-0.31748977661132816,8.576265563964844,4.939129028320313
129013,-0.27422973632812503,8.580157470703126,5.014871520996094
129080,-0.17378860473632812,8.559051361083984,4.972659301757813
129146,-0.279019775390625,8.561446380615235,4.9440687561035155
129214,-0.24938140869140626,8.650361480712892,4.923411712646485
129279,-0.22408401489257815,8.57551712036133,5.011728057861329
129346,-0.33799713134765624,8.526419219970704,5.007686462402344
129413,-0.29728179931640625,8.558003540039063,4.932991790771484
129479,-0.26180557250976566,8.54348373413086,4.962181091308594
129546,-0.15462844848632815,8.480315093994141,5.134622497558594
129613,-0.44203079223632813,8.640332336425782,5.167104949951172
129680,-0.18651214599609375,8.499774627685547,4.806355133056641
129746,-0.13427078247070312,8.413404235839844,4.80725326538086
129813,-0.4549040222167969,8.211923217773437,5.149741058349609
129879,0.1872605895996094,8.595874786376953,4.342769165039063
129946,0.05254074096679688,8.563841400146485,4.59409652709961
130013,-0.4870870971679688,8.716823272705078,5.044360198974609
130080,-0.23965164184570314,8.963809661865234,4.774022369384766
130146,-0.45415557861328126,8.812923431396484,4.9707133483886725
130213,-0.2041754150390625,8.736282806396485,4.308340759277344
130280,-0.4314028930664063,8.866062927246094,4.594246215820313
130346,-0.5331912231445313,8.846753082275391,5.091212768554688
130413,-0.7229965209960938,8.695866851806642,4.670886840820312
130480,-0.44023452758789067,8.763675842285156,4.773872680664063
130546,-0.4113446044921875,8.676706695556641,4.989723815917969
130613,-0.2712359619140625,8.83612518310547,4.925657043457032
130680,-0.5263055419921875,9.018895111083985,4.3418710327148435
130746,-0.2788700866699219,9.065747680664064,4.765340423583985
130814,0.03158432006835938,8.767268371582032,4.403393096923828
130879,-0.271834716796875,9.145382080078125,4.753065948486328
130946,0.10882369995117189,8.747659149169923,4.031566314697266
131015,-0.28306137084960936,8.691825256347657,4.475393371582031
131079,0.031734008789062504,8.524024200439454,4.038152618408203
131146,-0.162861328125,9.099577331542969,4.818330230712891
131214,-0.10343490600585938,9.125772857666016,4.111051025390625
131279,-0.118553466796875,8.90423355102539,4.304748229980469
131346,-0.07140151977539062,8.769962768554688,3.8922061157226566
131413,-0.21405487060546877,9.477241973876954,4.1570054626464845
131480,-0.10373428344726562,8.97024627685547,3.7652700805664066
131546,0.0028440856933593752,8.941955108642578,3.733685760498047
131614,-0.016016693115234376,9.525142364501953,3.785927124023438
131680,-0.1586700439453125,9.23235122680664,3.8470001220703125
131746,-0.04266128540039063,9.17142791748047,4.0635997009277345
131813,-0.025147705078125002,9.057814178466797,4.124972076416016
131879,-0.13022918701171876,9.433233489990235,4.024680633544922
131946,-0.13636642456054687,9.07562713623047,3.908821563720703
132013,-0.14938934326171877,9.204209747314454,3.861968994140625
132080,-0.1646575927734375,9.372459869384766,3.7461099243164067
132146,-0.1279838562011719,9.078471221923829,3.766916656494141
132213,-0.0058378601074218755,9.560019836425782,3.7235069274902344
132279,-0.2812651062011719,9.262738037109376,3.873794403076172
132346,-0.06316864013671876,9.507778472900391,3.524121551513672
132413,-0.0293389892578125,9.405092010498047,3.7913159179687503
132480,0.02365081787109375,9.470505981445314,3.4052687072753907
132546,-0.10987152099609375,9.222920837402345,3.6745587158203126
132614,0.11047027587890626,9.243727569580079,3.7577856445312503
132680,0.08083190917968751,9.390123138427734,3.4718801879882815
132746,-0.4891827392578125,9.135802001953126,3.38416259765625
132812,0.04565505981445313,9.121431884765625,3.7272491455078125
132879,0.3814068603515625,9.236093444824219,3.847449188232422
132946,-0.19968475341796876,9.192384338378906,3.6754568481445316
133013,-0.8900491333007813,9.534123687744142,3.767216033935547
133080,-0.4149371337890625,9.59774139404297,2.6105712890625
133146,-0.7755372619628906,9.791588287353516,3.313359832763672
133213,-0.094603271484375,9.907147979736328,3.104095001220703
133279,0.12139755249023439,9.120833129882813,3.5781591796875003
133346,-0.25297393798828127,8.982371063232423,3.5524127197265627
133414,0.013022918701171875,9.33623519897461,3.8639149475097656
133480,-0.13726455688476563,9.25719955444336,3.7940103149414064
133546,-0.022752685546875002,9.567204895019533,3.8311331176757815
133613,-0.07409591674804687,9.258247375488281,3.888164520263672
133680,-0.5613327026367188,8.980125732421875,4.005520477294922
133746,-0.2089654541015625,9.509874114990234,3.4819093322753907
133813,-0.6194119262695312,9.717791748046876,3.5184333801269534
133880,-0.15298187255859375,8.814420318603515,3.220103759765625
133946,-0.47181884765625004,9.153914337158204,3.7182678222656254
134016,-0.38350250244140627,9.241931304931642,4.001778259277344
134080,-0.0401165771484375,9.373507690429689,4.395459594726563
134146,-0.13696517944335937,9.020391998291016,4.272864532470703
134213,-0.002245330810546875,9.132508850097656,3.806284790039063
134280,-0.04834945678710938,9.006470947265626,4.0408470153808596
134346,-0.36404296875000003,8.877588958740235,3.660188598632813
134413,0.028889923095703127,9.157656555175782,3.703897705078125
134480,-0.010029144287109375,9.118887176513672,3.617078247070313
134546,-0.5487588500976562,9.312434692382814,3.4217344665527345
134613,0.1442999267578125,9.193731536865235,3.7221597290039066
134680,0.06002517700195313,9.174122314453125,3.5220259094238284
134746,-0.8765771484375,9.247918853759765,3.575464782714844
134813,0.40116577148437504,9.60163330078125,4.162543945312501
134880,0.14444961547851562,8.826245727539064,4.55577621459961
134946,-0.21555175781250002,8.629105682373048,4.927303619384766
135013,0.35057098388671876,8.559650115966797,4.2273591613769534
135080,0.4891827392578125,9.232650604248047,5.848488006591797
135146,0.5560935974121094,8.977281646728516,4.691394195556641
135213,0.6132746887207031,9.534722442626954,4.012256469726562
135279,0.06601272583007813,9.0052734375,4.362677764892578
135346,-0.054636383056640626,9.367969207763672,5.107528839111328
135414,-1.6176860046386718,8.4639990234375,5.549409942626953
135480,-0.8957373046875,8.612190856933594,4.635111236572266
135546,-0.2477348327636719,7.607480163574219,3.7089871215820316
135613,0.6277944946289062,10.425669708251954,2.925366668701172
135680,0.9279203796386719,9.521250457763673,2.391576690673828
135746,0.05074447631835938,10.111323394775392,3.911965026855469
135813,-0.7104226684570313,9.268126831054689,5.323080596923829
135880,0.21764739990234377,10.105635223388672,3.7046461486816407
135946,-0.41284149169921874,7.814349975585938,5.0216075134277345
136013,0.27138565063476566,8.90318572998047,3.6410284423828125
136080,0.03667373657226563,9.308243408203126,5.396428070068359
136146,1.2807366943359375,9.086853790283204,3.839365997314453
136213,0.9529183959960938,9.770033111572266,3.695215759277344
136280,-0.5376818847656251,9.387877807617189,4.253404998779297
136346,1.3814772033691407,8.904981994628907,3.907025299072266
136413,-0.21630020141601564,8.38152053833008,4.281097412109375
136480,0.51732421875,9.839788055419922,3.8314324951171876
136546,0.16585510253906252,8.995992736816406,4.7415399169921875
136614,-0.9668394470214844,9.28549072265625,4.2096958923339844
136679,-0.7650590515136719,8.04337371826172,5.2452424621582034
136746,0.6673123168945313,9.198222198486329,4.014950866699219
136814,0.017962646484375,7.948620758056641,5.387147369384766
136879,0.4900808715820313,8.437803497314453,4.420307922363281
136946,-0.7102729797363282,7.060517578125,4.508025512695313
137014,-0.7532336425781251,8.605155487060546,4.307592315673828
137080,-0.6414161682128906,8.265212402343751,5.360652465820313
137146,-0.34278717041015627,7.845784606933594,4.851860504150391
137213,-0.2279759216308594,7.952512664794923,5.987698516845703
137280,-0.008382568359375,7.89443344116211,5.4899835205078125
137346,1.1331436157226562,8.280780029296876,5.019212493896485
137413,0.31225067138671875,8.58135498046875,6.315217437744141
137480,1.1883787536621095,7.972121887207032,5.367238769531251
137546,0.3634442138671875,8.452772369384766,4.8368916320800786
137613,0.27422973632812503,8.447084197998047,5.0710047912597656
137680,-2.4406745910644534,8.202193450927735,4.086053009033203
137746,-1.2422666931152344,8.409212951660157,4.715943145751953
137813,0.30371841430664065,8.683442687988281,4.863536224365235
137879,0.30371841430664065,8.031099243164062,5.431006164550782
137946,0.8140072631835938,8.239765319824219,4.847669219970704
138014,1.1373348999023438,8.518186340332031,5.096751251220703
138080,2.079026641845703,7.845185852050782,4.685406646728516
138146,1.3741424560546875,8.557255096435547,5.483397216796876
138214,0.814306640625,7.655679931640625,5.646557922363281
138280,-0.3661386108398438,8.014783172607423,4.10790756225586
138346,-0.15777191162109375,8.198451232910157,4.241878967285157
138413,1.5838563537597656,8.156538391113282,5.8246875000000005
138480,1.4566209411621094,8.259673919677734,6.8178721618652345
138546,1.96631103515625,8.143814849853516,5.941295013427735
138612,2.4637266540527345,7.746690673828126,5.62634994506836
138680,0.23306533813476563,7.888445892333984,5.033283233642578
138746,-0.02305206298828125,6.712491302490235,5.7101756286621095
138813,2.0576211547851564,6.962022399902344,5.078339538574219
138880,-0.3688330078125,8.252339172363282,6.268813934326173
138946,0.46643005371093754,8.189469909667968,5.071453857421875
139014,0.4848417663574219,8.05639663696289,3.8872663879394533
139080,1.495689697265625,9.015152893066407,4.8403344726562505
139146,3.0422735595703125,8.61967529296875,6.0167381286621096
139214,2.6279351806640627,8.07405990600586,6.278244323730469
139280,1.025068359375,7.868836669921875,5.778433685302734
139346,0.8711883544921876,7.197632446289063,5.015919342041016
139414,0.7834707641601563,8.25712921142578,4.676275634765625
139480,-0.31449600219726564,8.141120452880859,6.424190826416016
139546,2.4363336181640625,9.290280761718751,7.415130157470704
139614,3.117716674804688,8.32314193725586,4.339326324462891
139680,1.2904664611816408,7.229516143798828,5.020260314941407
139746,1.3892610168457031,8.292755126953125,5.168601837158203
139815,2.1034259033203124,7.81779281616211,4.676125946044922
139880,3.189866638183594,7.844287719726563,3.9309754943847657
139946,2.5738975524902346,8.182434539794922,3.8839732360839845
140014,2.501897277832031,7.6950480651855475,4.632267150878906
140079,1.0879376220703125,8.80603775024414,5.696703643798829
140146,1.78189453125,9.226064300537109,6.036497039794922
140214,1.33881591796875,9.821526031494141,5.283862152099609
140280,1.5572117614746095,8.232280883789063,6.13169906616211
140346,-0.010627899169921875,8.794661407470704,6.711892547607422
140414,0.8213420104980469,7.311545562744141,6.783892822265625
140480,2.7259812927246094,7.982600097656251,5.289700012207032
140546,4.224515075683594,7.826474761962891,4.841531982421875
