relative_time,AccX,AccY,AccZ
0,0.6491999816894531,9.215885467529297,2.9388386535644533
16,0.5909710693359376,9.445657653808594,3.028352508544922
82,0.6631210327148438,9.306447143554688,2.8933332824707034
149,0.6147715759277345,9.406738586425782,3.0130842590332034
216,0.602347412109375,9.342073059082031,2.8698321533203126
282,0.6316864013671876,9.335935821533203,2.9306057739257816
350,0.6728507995605469,9.353748779296875,2.8698321533203126
416,0.43649230957031254,9.152267761230469,2.9365933227539065
483,0.3992198181152344,9.291927337646484,3.0097911071777346
550,0.4159849548339844,8.973838806152344,2.795137481689453
616,0.22273681640625,9.288484497070312,2.881956939697266
684,0.3119512939453125,9.529932403564453,2.9231213378906253
749,0.602347412109375,9.355994110107423,2.895279235839844
816,0.34518218994140626,9.276509399414063,2.8936326599121096
884,0.5433700561523438,9.50583251953125,2.9835955810546877
949,0.5498066711425782,9.428144073486328,2.869083709716797
1016,0.5709127807617188,9.427545318603515,2.8991711425781252
1089,0.5451663208007813,9.396709442138672,2.7991790771484375
1150,0.6743476867675782,9.478888549804688,2.8409422302246097
1216,0.4923262023925781,9.298214263916016,2.8780650329589843
1288,0.5873785400390625,9.345964965820313,2.8201354980468754
1349,0.4393363952636719,9.443262634277344,2.964585113525391
1416,0.29069549560546876,9.272318115234375,3.0593380737304687
1484,0.5709127807617188,9.080716552734376,2.8830047607421876
1549,0.2962339782714844,9.148974609375001,2.8837532043457035
1616,0.5355862426757813,8.945697326660156,2.7107130432128907
1684,0.3800596618652344,9.55178695678711,2.5795857238769533
1749,0.5459147644042969,9.428144073486328,2.5777894592285158
1816,0.4944218444824219,9.237590332031251,2.6376649475097658
1884,0.8547225952148438,8.993597717285157,2.5237518310546876
1949,0.37616775512695316,9.135652313232422,2.4610322570800784
2016,0.37392242431640627,8.817863159179687,2.1739292907714844
2085,0.671802978515625,8.810528411865235,2.159259796142578
2150,0.6592291259765626,9.60163330078125,2.1124072265625
2216,1.039288787841797,9.379495239257812,1.9687060546875002
2289,0.15417938232421877,10.76845687866211,2.2802082824707033
2349,0.4279600524902344,9.034911804199218,1.811832275390625
2416,0.8638536071777344,9.10676239013672,1.4874568176269531
2484,-0.4004173278808594,10.498119049072265,2.3035597229003906
2549,0.9250762939453125,9.521250457763673,1.7724641418457032
2616,0.45565246582031255,10.494825897216797,1.6522640991210937
2689,0.5375321960449219,10.203831024169922,1.3031900024414063
2749,0.0061372375488281256,10.131231994628907,1.6001724243164064
2816,-0.7993377685546875,9.7573095703125,2.0276834106445314
2887,-0.350870361328125,10.349478149414063,1.8767971801757815
2949,-0.12109817504882812,9.73291030883789,1.8383271789550781
3016,0.4105961608886719,10.231373748779298,1.7036073303222656
3087,0.6053411865234375,9.5657080078125,1.7741107177734377
3150,0.9985734558105469,9.483528900146485,1.3677058410644531
3216,-0.002544708251953125,10.966195678710939,2.3004162597656252
3286,0.8713380432128907,9.362730102539063,1.6937278747558595
3350,0.06271957397460938,9.45748306274414,1.6480728149414063
3416,-0.1634600830078125,9.923613739013673,2.1019290161132815
3483,0.017663269042968752,8.996292114257812,1.7022601318359376
3550,1.7871336364746095,9.669891357421875,1.4100677490234377
3616,0.8749305725097657,10.780132598876953,1.7866845703125
3691,0.34143997192382813,9.313183135986328,1.9324813842773438
3750,0.2935395812988281,9.246272277832032,0.8319699096679688
3816,-0.23007156372070314,11.059751129150392,1.9898121643066407
3886,0.3950285339355469,8.078101501464845,2.0341200256347656
3949,0.9059161376953125,9.221873016357423,1.6185841369628906
4016,0.9324110412597657,10.18646713256836,1.5048207092285157
4086,-0.31284942626953127,9.932894439697266,2.1119581604003907
4149,-0.6605763244628906,9.673633575439453,2.0770806884765625
4216,-0.45340713500976565,9.607770538330078,2.2782623291015627
4284,0.33859588623046877,9.55178695678711,2.132914581298828
4350,0.5550457763671875,8.861721954345704,2.5605752563476565
4416,-0.12543914794921876,10.017169189453126,2.078577575683594
4488,0.8120613098144531,9.21169418334961,1.769769744873047
4549,1.5976277160644532,9.660910034179688,1.8221607971191407
4616,0.13906082153320312,10.382709045410158,2.3501129150390625
4684,-0.13112731933593752,10.07958938598633,2.1880000305175784
4750,0.06810836791992188,9.839039611816407,2.0109182739257814
4816,-0.48873367309570315,10.889555053710938,2.376757507324219
4889,-0.02245330810546875,10.327024841308594,1.7965640258789064
4952,-0.37736526489257816,8.74900634765625,2.3198757934570313
5016,1.3061837768554687,9.354048156738282,1.7836907958984376
5085,1.2145742797851564,9.713750152587892,1.6461268615722657
5149,-0.2472857666015625,9.223220214843751,2.3930735778808594
5216,-0.9437873840332032,10.101443939208984,1.4135105895996094
5288,-0.38574783325195316,10.071805572509765,2.271376647949219
5349,-1.3680052185058595,10.822195129394531,2.2924827575683593
5416,0.41927810668945314,9.552535400390626,2.822081451416016
5488,0.8430468750000001,9.394314422607422,1.442849578857422
5550,1.0677296447753908,11.572434997558595,1.7459692382812502
5615,-1.6637901306152345,10.24200164794922,2.0218455505371096
5684,0.279019775390625,10.176138610839844,1.7357904052734376
5750,1.6723223876953126,9.534872131347656,1.689536590576172
5816,-0.04101470947265625,8.70589599609375,2.0219952392578127
5888,0.2812651062011719,9.100924530029298,0.6716532897949219
5950,-1.1069480895996093,9.293873291015625,1.9986437988281252
6016,0.4954696655273438,8.83612518310547,1.712289276123047
6088,-0.7159611511230469,6.676266632080078,1.9963984680175781
6150,0.5828878784179687,10.369237060546876,1.1295510864257814
6216,-0.004939727783203125,9.374854888916015,2.842738494873047
6283,0.0185614013671875,9.265881500244141,3.2124696350097657
6350,0.4279600524902344,8.646768951416016,3.017275543212891
6416,-1.2615765380859376,9.442514190673828,2.315534820556641
6484,0.007634124755859375,8.342152404785157,2.422562255859375
6550,-0.6517446899414063,10.061327362060547,2.654729461669922
6616,-1.4138099670410158,10.446027374267578,3.3774266052246094
6684,0.8517288208007813,10.022857360839843,0.9006770324707032
6750,1.1168275451660157,5.1766850280761725,1.4801220703125
6816,0.9054670715332032,7.755671997070313,3.014730834960938
6890,1.0521620178222657,10.875035247802735,3.3702415466308597
6950,-0.2847079467773438,11.793974304199219,4.290078735351563
7016,-1.456022186279297,12.012968902587891,2.6289830017089844
7083,1.114731903076172,12.254117431640626,2.7563681030273437
7149,0.24698638916015625,8.234226837158204,3.1249017333984375
7216,0.28216323852539066,7.828420715332031,3.1422656250000003
7284,-1.8401234436035157,6.298003234863281,3.7685632324218754
7350,0.04101470947265625,4.894671478271484,2.4001089477539064
7416,0.20058288574218752,9.378447418212891,2.055824890136719
7484,1.4494358825683595,9.700128479003906,2.7973828125
7549,0.3823049926757813,11.174861755371094,3.0960118103027345
7615,2.4444168090820315,10.657387847900392,2.664459228515625
7690,0.829874267578125,6.760391693115235,3.5678306579589845
7749,-0.9713301086425782,10.553803253173829,4.044738922119141
7816,1.5799644470214844,10.667416992187501,4.321513366699219
7889,0.13546829223632814,8.07645492553711,3.47996337890625
7949,1.274300079345703,11.793824615478517,1.3130694580078126
8016,0.9087602233886719,8.783135375976563,1.4940431213378906
8089,2.0706440734863283,8.915011138916016,1.3108241271972656
8149,2.0529808044433593,7.207811279296875,2.4827371215820313
8216,0.15822097778320313,9.102720794677735,2.4650738525390627
8286,0.550704803466797,7.5170681762695315,3.775748291015625
8348,0.2763253784179688,11.088790740966797,2.4529490661621094
8416,-0.06825805664062501,7.866741027832032,2.7749295043945312
8483,1.7425263977050782,9.761800231933595,0.22288650512695313
8550,-0.6505471801757813,10.942993927001954,0.8660989379882813
8616,0.7625143432617187,11.301498413085938,2.6972410583496096
8684,-0.12948074340820312,9.374106445312501,2.896626434326172
8749,1.084644470214844,10.553204498291016,1.3915063476562501
8816,0.8698411560058594,8.992998962402345,1.2002041625976563
8884,-0.147293701171875,12.68447250366211,3.254232788085938
8949,-0.51732421875,10.785072326660156,1.9288888549804688
9016,-2.005529479980469,10.759176177978516,2.6806256103515627
9084,2.5141717529296876,10.339898071289063,1.9073336791992188
9149,0.8303233337402344,11.268267517089845,1.2972024536132813
9216,2.635269927978516,11.300749969482423,3.7787420654296877
9284,-0.890947265625,17.973274383544922,5.242398376464844
9348,-0.6366261291503906,14.976206817626954,6.015989685058594
9416,-1.4891033935546876,7.323969726562501,3.4768199157714847
9485,-2.0713925170898437,1.3916560363769532,1.9561322021484375
9549,2.6217979431152343,6.345005493164063,2.173480224609375
9616,2.1644989013671876,7.629185028076172,2.980302429199219
9686,-0.27497817993164064,8.551417236328126,9.274413757324218
9749,-1.0056088256835938,20.51289321899414,-3.1031968688964846
9816,2.8135491943359376,8.902437286376953,4.111350402832032
9885,1.0984158325195312,5.256768493652344,5.56363037109375
9950,-0.7988887023925781,7.855813751220704,5.822442169189453
10016,-1.2216096496582032,9.953252105712892,3.7281472778320315
10089,0.8506809997558594,4.0107595825195315,1.7119898986816406
10149,2.5057891845703124,10.571616210937501,3.4573603820800782
10216,2.7328669738769533,9.89098159790039,-0.9547146606445313
10282,3.0659243774414064,10.903176727294923,1.3352233886718752
10349,-0.07978408813476563,9.759105834960938,0.5300477600097656
10416,0.7926017761230469,8.944948883056641,3.1257998657226564
10488,-0.106578369140625,10.430010681152345,2.838846588134766
10549,0.3224295043945313,9.415420532226562,1.3943504333496095
10616,1.1404783630371094,9.681267700195313,2.4569906616210937
10687,2.6195526123046875,7.91074951171875,0.2341131591796875
10749,1.7486636352539064,10.31909133911133,1.3654605102539064
10816,1.276395721435547,8.599467315673829,0.08083190917968751
10886,0.7030879211425781,8.313711547851563,1.635648651123047
10949,-1.5837066650390625,13.780044250488283,0.19893630981445312
11016,-0.5644761657714844,10.363848266601563,1.640438690185547
11083,0.6923103332519531,9.25390640258789,1.4409036254882812
11149,0.7358697509765625,9.288035430908204,2.150577850341797
11216,1.5236814880371095,11.435469818115235,0.30566436767578126
11288,0.7680528259277344,10.503507843017578,0.209564208984375
11349,-0.8707392883300782,9.451495513916017,1.1717633056640626
11416,-0.9319619750976563,10.87189178466797,1.9676582336425783
11488,-0.9282197570800782,10.697504425048828,2.29203369140625
11549,0.07753875732421875,9.70746322631836,2.542163543701172
11615,0.468226318359375,11.627071380615234,1.7946180725097658
11688,0.5593867492675781,10.46189437866211,1.840422821044922
11749,1.2320878601074219,6.972799987792969,0.9195378112792969
11816,-0.2903961181640625,9.383536834716798,1.8952088928222657
11885,-2.0342697143554687,11.02472396850586,3.176843719482422
11949,-1.3079800415039062,10.790311431884767,1.4840139770507814
12016,1.7658778381347657,10.53419403076172,1.6988172912597657
12083,-0.5062472534179687,10.651999053955079,2.2122496032714847
12149,0.23096969604492187,9.177864532470704,1.9672091674804688
12216,-1.3293855285644531,10.657687225341798,1.2796888732910157
12283,0.9741741943359375,10.09934829711914,3.095413055419922
12348,0.0814306640625,9.943821716308594,1.786534881591797
12416,0.17932708740234377,10.413245544433595,2.062860260009766
12487,1.0244696044921875,9.000333709716797,4.758754119873047
12549,-1.063089294433594,12.70512954711914,2.39262451171875
12616,-0.1333726501464844,10.45710433959961,2.1438418579101564
12683,1.8312918090820314,9.222022705078125,2.2960752868652343
12749,-0.108973388671875,11.444301452636719,1.6772621154785157
12816,2.179318084716797,11.268716583251953,-0.5938151550292969
12888,1.6194822692871094,6.236930236816407,1.4623091125488281
12949,1.4415023803710938,5.9338105773925784,3.9173538208007814
13016,1.4194981384277345,11.610156555175783,4.30908920288086
13083,1.0253677368164062,13.011093292236328,3.7309913635253906
13149,3.395988006591797,7.267836456298829,1.8438656616210938
13216,-0.3688330078125,5.710325317382813,2.105970611572266
13288,-0.5179229736328125,0.09295669555664063,3.609893188476563
13349,-4.308939514160157,15.252532196044923,2.7045758056640627
13416,-0.09804611206054688,10.848240966796876,1.192570037841797
13484,1.7166302490234375,12.463382263183595,0.9192384338378907
13549,-0.37976028442382814,8.046966247558593,3.30752197265625
13616,-0.20686981201171875,7.959997100830079,2.6071284484863284
13687,-0.5182223510742188,8.893755340576172,2.7041267395019535
13748,0.21270767211914063,6.189329223632813,3.527265014648438
13815,1.490899658203125,8.975186004638672,2.0314256286621095
13887,2.30161376953125,9.901609497070313,1.6606466674804687
13949,2.239193572998047,9.004824371337891,3.4226325988769535
14015,1.4992822265625,9.702373809814453,3.6265086364746097
14085,-0.013471984863281251,8.868907012939454,3.0003607177734377
14149,-2.1872515869140625,9.42964096069336,0.16555572509765626
14216,-1.349443817138672,7.239694976806641,2.678380279541016
14282,1.6468753051757814,9.598190460205078,4.698429565429688
14349,1.452429656982422,8.104147338867188,3.476221160888672
14416,1.951791229248047,7.364535369873047,1.95673095703125
14483,-1.5777191162109376,8.438402252197266,1.452429656982422
14549,-1.1262579345703125,4.2872346496582034,3.338507537841797
14616,0.39772293090820315,9.453740844726562,0.948427734375
14689,-1.162632293701172,9.982740783691407,1.8172210693359376
14749,1.0207273864746094,7.881859588623048,3.7049455261230473
14816,0.8696914672851563,10.141261138916017,1.7236656188964845
14883,-0.5674699401855469,11.038944396972656,1.7512083435058594
14949,-0.21809646606445313,9.694440307617189,3.2221994018554687
15016,1.180594940185547,8.271199951171875,3.3356634521484376
15088,1.0030641174316406,10.135872344970704,2.418670349121094
15149,2.2757176208496093,7.267088012695313,2.0219952392578127
15216,-0.017663269042968752,10.141859893798829,1.3350736999511719
15288,-0.5098397827148438,7.64729736328125,4.271068267822266
15348,0.6030958557128907,10.797795867919923,1.9547850036621095
15416,-0.3694317626953125,6.834188232421876,1.9630178833007814
15482,1.1319461059570313,9.035061492919922,1.7500108337402345
15549,-0.7150630187988282,9.94367202758789,3.665427703857422
15616,0.6382727050781251,11.455977172851563,3.2024404907226565
15690,0.00029937744140625,9.767039337158204,2.9008177185058597
15749,-1.0211764526367189,8.638386383056641,4.1817041015625005
15816,-1.5578105163574218,9.536369018554687,3.1621742248535156
15887,-0.1287322998046875,10.749446411132814,2.6577232360839846
15949,1.126707000732422,9.130862274169923,3.625760192871094
16016,0.8357121276855469,10.710826721191406,3.502865753173828
16087,-0.4195774841308594,9.288185119628906,2.909799041748047
16149,-0.9141490173339845,8.976233825683595,3.047662353515625
16216,-1.1413764953613281,10.06237518310547,2.156266021728516
16283,1.094374237060547,11.620784454345703,1.7324972534179688
16349,1.119671630859375,7.5928106689453125,3.8544845581054688
16416,1.3013937377929687,11.067534942626954,3.398383026123047
16483,-1.026116180419922,10.397528228759766,2.7538233947753907
16549,-1.129102020263672,9.587861938476562,3.1090347290039064
16616,-1.7342935180664063,10.199190673828125,2.9785061645507813
16684,-0.9789642333984375,11.143277435302736,3.044219512939453
16748,1.6717236328125,7.287146301269532,3.309617614746094
16816,1.76033935546875,7.463629302978516,2.067949676513672
16883,3.596720581054688,14.146631927490235,3.1259495544433595
16949,1.3539344787597658,14.265035705566406,6.873556365966797
17016,-1.30528564453125,12.177327117919923,5.998176727294922
17087,-3.7215609741210938,6.984625396728516,3.3021331787109376
17149,1.5777191162109376,6.380182342529297,1.5117063903808594
17216,1.8528469848632814,7.8483293151855476,3.390150146484375
17283,2.445464630126953,11.101065216064454,4.893773345947266
17349,-1.5066169738769533,9.711953887939453,-0.05763015747070313
17416,0.5697152709960938,13.147759094238282,2.856958923339844
17486,-0.38050872802734376,10.290949859619142,3.4655932617187504
17549,-1.5510745239257813,9.186396789550782,4.193828887939453
17616,0.18935623168945315,8.580756225585938,3.7869749450683594
17685,1.4527290344238282,7.352410583496094,1.2954061889648438
17748,1.2259506225585939,8.337961120605469,3.0196705627441407
17815,-0.7750881958007813,8.620872802734375,5.652844848632813
17885,1.5844551086425782,9.242979125976563,2.60578125
17948,1.1773017883300783,6.932833099365235,4.09308837890625
18015,1.931283874511719,9.74817855834961,1.6685801696777345
18082,-0.5469625854492188,9.69593719482422,2.31119384765625
18148,-0.183218994140625,7.081324310302735,3.419788513183594
18216,-0.5421725463867187,8.652457122802735,5.4057087707519536
18287,2.618355102539063,8.964258728027344,4.027225341796875
18348,1.2014016723632812,12.481644287109376,2.0814216613769534
18415,0.5433700561523438,12.465477905273438,4.143982543945313
18482,-2.011666717529297,10.828482055664063,3.417543182373047
18549,-0.012723541259765625,12.850926361083985,5.059478759765625
18616,1.842817840576172,10.377919006347657,3.549119567871094
18685,1.4858102416992187,9.355245666503906,2.970722351074219
18749,2.116149444580078,9.706714782714844,0.17184265136718752
18816,1.9245478820800783,10.365494842529298,3.1226564025878907
18886,0.95561279296875,12.043655090332033,2.461631011962891
18949,0.7406597900390626,9.898466033935547,3.5868411254882813
19016,2.266885986328125,10.852881317138673,1.6435821533203125
19088,2.1679417419433595,8.197702789306641,0.7842192077636719
19149,2.868934020996094,9.013656005859376,2.750380554199219
19216,2.032323760986328,9.612410888671876,1.4178515625
19283,1.353036346435547,9.370214538574219,0.585582275390625
19348,1.5811619567871094,9.321565704345703,0.8387059020996094
19416,0.6324348449707031,11.284733276367188,-0.4236190795898438
19487,1.8809884643554688,14.353950805664063,0.19788848876953127
19549,2.681224365234375,11.747271423339845,3.1885194396972656
19616,1.0319540405273437,9.31512908935547,1.050066375732422
19690,0.7135661315917969,9.9680712890625,-0.12124786376953126
19749,1.8973045349121094,8.263116760253906,2.7057733154296875
19816,1.5365547180175783,11.300450592041017,2.4565415954589844
19888,3.0684690856933594,10.259814605712892,1.4867083740234375
19950,-0.09475296020507813,11.295211486816406,2.351759490966797
20016,0.8566685485839844,5.883664855957032,3.3199461364746097
20087,2.6298811340332033,8.541388092041016,2.089355163574219
20149,-0.10268646240234376,4.4212060546875005,0.5569917297363282
20215,0.101788330078125,8.61054428100586,3.3194970703125
20287,0.35281631469726565,9.702373809814453,2.603236541748047
20349,1.6986676025390626,5.962401123046876,5.181325378417969
20415,2.4281007385253908,7.488178253173828,5.5940171813964845
20487,3.184328155517578,9.021290130615235,3.236868896484375
20549,-0.0622705078125,11.898157653808594,2.7602600097656254
20615,-1.466949462890625,13.038486328125,4.8789541625976565
20688,-1.1273057556152344,9.363328857421875,3.0928683471679688
20749,-3.09676025390625,5.190456390380859,2.92431884765625
20816,6.094576263427735,15.231276397705079,5.406307525634766
20885,1.9199075317382814,9.98962646484375,3.8016444396972657
20949,3.400628356933594,13.340857543945313,3.848946075439453
21015,2.672692108154297,15.66148178100586,2.100132751464844
21088,3.3358131408691407,16.918567657470703,5.246140594482422
21149,2.042801971435547,7.105424194335938,1.5296690368652344
21215,-2.123035125732422,5.324876861572266,4.903353424072266
21282,-2.9449758911132813,8.476273498535157,0.5791456604003906
21348,-3.8077816772460937,10.368638305664064,2.1297711181640624
21415,-2.199526062011719,3.745660858154297,6.2385768127441406
21487,-0.8210426330566407,-0.39053787231445314,4.600233764648438
21549,-2.993924102783203,5.478307800292969,5.259612579345704
21615,0.8053253173828125,17.52914794921875,0.7274871826171876
21683,-0.65384033203125,18.13224380493164,3.490740966796875
21749,-1.1802955627441407,11.53007308959961,0.46074188232421875
21815,-2.0685484313964846,5.244494018554688,3.805536346435547
21887,0.9839039611816407,5.890999603271485,6.748117218017579
21949,2.083217926025391,6.6807572937011726,4.781806182861328
22016,-0.8919950866699219,10.67220703125,2.1248313903808596
22086,-1.4641053771972656,7.030579833984375,2.309547271728516
22149,-1.6625926208496093,4.834795989990234,1.7630337524414064
22215,1.9330801391601564,8.647517395019532,2.819985809326172
22287,1.6822018432617187,7.759713592529297,2.595003662109375
22348,2.0453466796875,12.247231750488282,1.1774514770507813
22415,0.4709207153320313,12.453203430175781,3.437451782226563
22486,1.2002041625976563,6.544390869140625,4.215833129882813
22549,0.6685098266601562,4.4177632141113286,4.432133331298829
22615,-3.382665710449219,4.606221313476563,3.843706970214844
22683,2.079924774169922,7.90640853881836,1.7036073303222656
22749,2.237996063232422,6.910978546142578,0.43185195922851566
22815,0.43768981933593754,6.074517974853516,3.3723371887207034
22888,-0.6956034851074219,13.465847625732422,-1.5658937072753907
22949,-2.6303302001953126,3.28357177734375,5.816454620361329
23015,-1.404529266357422,5.308860168457032,3.3413516235351564
23085,-1.3497431945800782,6.259982299804688,2.5631199645996094
23149,-0.13906082153320312,8.603209533691407,1.8736537170410157
23215,1.244212646484375,8.899144134521485,4.507277069091797
23285,-0.7634124755859375,9.160650329589844,4.2803489685058596
23349,-2.228715362548828,10.063123626708984,3.998185729980469
23415,2.8288174438476563,10.93610824584961,3.3165032958984377
23482,1.0711724853515625,0.08322692871093751,6.496041412353516
23549,-1.244362335205078,5.869743804931641,0.49187713623046875
23615,-2.551743621826172,9.824669494628907,1.8299446105957031
23685,1.8006056213378907,8.443940734863281,-1.2856764221191408
23748,4.6994773864746096,8.93477005004883,-1.5431410217285157
23815,2.6405090332031254,8.510252838134766,3.3284783935546876
23883,-0.09310638427734376,3.886817321777344,5.378166046142578
23949,1.4163546752929688,13.54518264770508,5.969735870361329
24015,-1.0735675048828126,9.461225280761719,4.437222747802735
24087,1.6856446838378907,7.555388488769531,2.0377125549316406
24149,0.5773493957519532,11.994557189941407,0.9439370727539063
24215,-1.9983444213867188,13.521232452392578,3.7257522583007816
24281,0.3849993896484375,8.221353607177734,4.346661071777344
24349,2.74229736328125,8.600365447998048,2.8036697387695315
24415,1.2549902343750001,12.004137268066406,0.7713459777832031
24488,1.581910400390625,6.910379791259766,3.1165191650390627
24549,-2.554138641357422,8.659193115234375,2.1237835693359375
24615,-0.7905061340332031,7.21664291381836,3.0549971008300782
24683,2.046095123291016,4.393663330078125,2.9319529724121094
24748,1.199755096435547,7.765850830078126,5.027295684814454
24815,3.2389645385742187,12.024644622802734,7.139702911376953
24887,-2.075434112548828,15.088024291992188,3.4853521728515626
24951,0.39532791137695317,13.195958862304687,5.529501342773438
25014,-0.887354736328125,13.532608795166016,3.287313995361328
25083,-1.1558963012695314,8.11761932373047,0.030386810302734376
25149,-1.9031423950195314,9.004075927734375,2.3487657165527347
25215,-0.5794450378417969,5.749394073486329,1.2229568481445312
25283,-2.6658064270019532,12.032727813720705,2.122136993408203
25349,0.10029144287109376,8.817713470458985,3.7380267333984376
25415,0.45699966430664063,9.321416015625001,-1.4786251831054689
25482,1.7760566711425783,8.093519439697266,4.968318328857422
25549,0.34503250122070317,15.112573242187501,3.760030975341797
25615,-0.07649093627929687,8.968749389648439,-3.2320788574218753
25682,-1.0850935363769532,6.396648101806641,0.04894821166992188
25749,2.3381378173828127,11.18519027709961,2.7036776733398438
25815,1.6148419189453125,12.204720153808594,8.803493041992187
25882,-5.316344604492188,9.988428955078126,12.30605941772461
25949,0.09819580078125001,13.97014892578125,4.971012725830079
26015,-2.0565733337402343,11.900402984619141,1.3959970092773437
26081,0.9957293701171875,14.69868392944336,2.8193870544433595
26149,0.12184661865234375,24.61496292114258,-6.179898834228516
26215,1.2314891052246095,13.47632583618164,-6.945856018066406
26282,-3.1307395935058597,11.921958160400392,1.9838246154785157
26349,-1.509910125732422,5.225633239746094,4.724475402832032
26415,-2.010319519042969,8.16941162109375,5.413492584228516
26483,3.054697723388672,13.06483154296875,3.4450859069824222
26549,2.5902136230468753,11.864328002929689,4.733307037353516
26615,-0.3960763549804688,8.346942443847656,4.34935546875
26684,0.4340972900390625,11.273955688476564,5.035528564453125
26749,1.0386900329589843,7.444469146728516,1.7281562805175783
26815,0.5391787719726563,11.620036010742188,1.9752923583984376
26883,3.349285125732422,5.751639404296875,1.0237211608886718
26949,-0.30805938720703124,7.4290512084960945,1.9666104125976565
27015,-2.4566912841796875,12.756023712158203,8.134384460449219
27083,1.8175204467773438,13.680950317382813,3.8492454528808597
27149,-0.5854325866699219,10.451565856933595,1.7705181884765626
27215,0.5255570983886719,7.6597215270996095,6.247558135986329
27282,-1.866768035888672,13.555810546875001,2.7602600097656254
27349,4.471351776123047,7.384593658447266,2.233206024169922
27415,2.664758605957031,10.949580230712892,2.7626550292968752
27482,0.9277706909179688,9.054371337890625,2.557581481933594
27549,-1.1250604248046876,13.237572326660157,3.8154158020019535
27615,0.8779243469238281,3.810027008056641,2.237996063232422
27681,1.024768981933594,8.899293823242187,0.9933343505859376
27749,2.8154951477050782,8.790320434570313,-2.0722906494140627
27815,-1.0349478149414062,15.980767822265626,1.542093200683594
27882,-0.09550140380859376,4.960833892822266,2.095941467285156
27949,1.46335693359375,7.244634704589844,8.515042877197265
28015,2.042652282714844,9.630223846435547,5.713019714355469
28084,0.3177891540527344,6.757098541259766,7.7231895446777346
28149,-2.2082080078125,13.646970977783203,1.8230589294433595
28215,-0.1395098876953125,13.87240219116211,3.320544891357422
28283,-0.6689588928222656,11.208092651367188,4.720284118652344
28348,-0.0712518310546875,10.765912170410157,5.904471588134766
28415,0.13022918701171876,6.77116928100586,4.800666961669922
28483,-1.3332774353027343,8.611592102050782,4.4247985839843755
28549,1.7536033630371095,8.464747467041017,2.651885375976563
28615,0.8566685485839844,8.518635406494141,3.3364118957519535
28683,-1.7790504455566407,13.000914459228516,2.465672607421875
28748,0.8743318176269532,8.039930877685547,6.903344421386719
28815,-0.9529183959960938,7.559729461669923,2.877765655517578
28882,2.3065534973144532,13.047467651367189,1.9714004516601564
28949,-0.3189866638183594,10.432854766845704,2.898871765136719
29015,-0.6984475708007812,6.223009185791016,2.264490966796875
29082,0.8017327880859375,7.051685943603516,3.723656616210938
29149,3.5548077392578126,10.63194076538086,1.549427947998047
29215,1.6046630859375002,13.790223083496095,3.220253448486328
29281,-3.612437896728516,14.49510726928711,6.841522979736329
29348,-1.3705499267578125,7.41542953491211,3.2849189758300783
29415,1.9734960937500001,8.88836654663086,3.3415013122558594
29483,1.5992742919921876,10.331814880371095,2.9174331665039066
29549,-3.0817913818359375,12.858560485839844,2.3346949768066407
29615,0.37018020629882814,7.169191589355469,5.0338819885253905
29684,-3.432811431884766,5.608986053466797,3.653302917480469
29748,-1.5630496215820313,4.004772033691406,3.496878204345703
29815,2.328857116699219,6.388864288330079,5.7278388977050785
29883,1.4998809814453127,5.913003845214844,3.2126193237304688
29950,1.6893869018554688,10.023007049560547,2.5500970458984376
30015,-1.4338682556152345,10.155481567382813,5.7624169921875
30084,-2.7238856506347657,6.080505523681641,4.534819793701172
30149,-1.3964460754394532,12.456795959472657,0.7752378845214845
30215,-0.9086105346679688,11.266171875000001,3.510499877929688
30282,0.19728973388671875,9.282047882080079,3.6791990661621097
30349,0.6098318481445313,10.265203399658203,3.963308258056641
30414,-0.8906478881835938,10.259664916992188,4.756359100341797
30482,0.7237449645996095,8.275391235351563,5.932463378906251
30549,0.6447093200683595,8.642427978515625,3.9436990356445314
30615,-1.064735870361328,8.879085845947266,4.934338989257813
30682,-0.811761932373047,9.07278305053711,6.145470428466798
30749,0.12469070434570313,9.165590057373047,4.501139831542969
30815,-1.0015672302246095,7.911497955322266,4.642146606445313
30882,-2.484533386230469,8.718469848632813,4.9970585632324225
30949,-0.6165678405761719,9.363029479980469,4.565955047607422
31015,0.8217910766601563,8.440497894287109,4.7187872314453125
31082,-0.11810440063476563,9.513915710449218,5.476212158203126
31149,-0.11361373901367187,8.488547973632812,3.6350408935546876
31215,0.058977355957031255,5.814957733154297,5.085973663330078
31283,-0.21809646606445313,9.155860290527345,4.510270843505859
31349,0.5610333251953126,9.311087493896485,4.615502014160157
31415,0.6731501770019531,7.103478240966798,5.616021423339844
31485,2.3261627197265624,9.269024963378907,4.504283294677735
31548,1.2960049438476564,10.451715545654297,4.444407806396485
31615,0.3375480651855469,8.636590118408204,5.401517486572266
31689,0.41194335937500004,10.073152770996094,4.799319763183594
31749,0.7315287780761719,8.888216857910157,4.0002813720703125
31815,0.8024812316894532,9.76299774169922,3.580404510498047
31886,2.053579559326172,9.82002914428711,3.6112403869628906
31949,1.8531463623046875,8.991951141357422,4.055366821289063
32015,1.7835411071777345,8.881929931640625,3.687132568359375
32081,1.6892372131347657,10.460247802734376,3.755390625
32149,1.1467652893066407,9.201964416503907,3.004552001953125
32215,1.251098327636719,8.805888061523438,3.274740142822266
32287,0.32482452392578126,9.153614959716798,3.2130683898925785
32348,0.632135467529297,10.28750701904297,2.318528594970703
32415,0.07768844604492188,9.513167266845704,3.2443533325195313
32488,-0.11241622924804688,9.46362030029297,2.678230590820313
32549,0.9168434143066406,8.943901062011719,3.1220576477050783
32615,0.15822097778320313,10.677745513916015,3.3319212341308595
32682,-0.305364990234375,10.114167480468751,2.9961694335937503
32748,-0.06122268676757813,9.37216049194336,2.325114898681641
32815,1.1214678955078126,9.100475463867188,1.462159423828125
32887,-0.19594253540039064,9.36497543334961,2.0210971069335937
32949,0.9319619750976563,9.001231842041015,1.489552459716797
33015,0.1423539733886719,9.38937469482422,3.4620007324218753
33085,2.120490417480469,8.904832305908204,0.8780740356445313
33149,0.24204666137695313,9.16708694458008,2.9789552307128906
33215,1.2669653320312502,12.356504516601563,0.2540217590332031
33287,1.8091378784179688,12.871134338378907,1.1910731506347656
33349,2.3372396850585937,8.497828674316407,3.301384735107422
33415,2.635718994140625,9.533824310302736,2.824626159667969
33486,0.19669097900390625,10.140812072753906,2.8761190795898437
33549,1.302591247558594,8.719817047119141,1.8506016540527346
33615,1.4632072448730469,9.716145172119141,3.2298335266113285
33685,1.5365547180175783,12.816797332763672,3.063978424072266
33748,1.0163864135742189,8.912616119384767,2.7858567810058594
33815,-0.12723541259765625,9.827962646484375,5.892945556640625
33885,0.7147636413574219,8.57222396850586,2.714455261230469
33948,-0.6701564025878907,8.627309417724609,2.565215606689453
34015,1.7477655029296877,9.922715606689454,1.6971707153320312
34087,1.4199472045898438,12.291389923095704,3.318149871826172
34149,0.9003776550292969,11.163485412597657,3.5727703857421877
34215,1.134041748046875,10.502460021972658,3.4154475402832034
34285,-0.47136978149414066,10.687325592041017,4.0513252258300785
34348,1.1039543151855469,6.383774871826172,3.469934234619141
34415,1.1156300354003907,9.647887115478516,3.8826260375976562
34485,1.5106585693359376,10.370883636474609,3.247047729492188
34549,0.6385720825195312,9.893975372314454,4.846172332763672
34615,0.06661148071289062,8.66368377685547,2.3477178955078126
34682,-1.9109262084960938,11.441307678222657,3.4224829101562504
34748,0.41344024658203127,9.561965789794922,2.9291088867187502
34815,1.6363970947265625,7.581883392333984,2.055974578857422
34883,0.48633865356445316,9.58771224975586,3.5115476989746095
34951,1.109941864013672,11.179651794433594,4.123924255371094
35015,1.193917236328125,9.783954162597658,4.635260925292969
35085,1.7509089660644532,7.917036437988282,2.6661058044433594
35148,0.6084846496582031,9.631571044921875,3.0719119262695314
35215,0.3394940185546875,8.31880096435547,2.587668914794922
35282,0.34518218994140626,7.443870391845704,2.712359619140625
35348,1.8155744934082032,10.485994262695312,2.077529754638672
35415,-0.02604583740234375,11.270662536621094,2.228415985107422
35488,0.7694000244140625,10.546917572021485,3.065175933837891
35548,-0.19399658203125,10.361602935791016,4.763394470214844
35615,1.2042457580566406,9.622290344238282,2.8648924255371093
35683,0.5316943359375,8.988059234619142,3.573369140625
35748,-0.08457412719726563,9.732012176513672,3.73383544921875
35815,-1.0747650146484375,9.416019287109375,4.036206665039063
35887,-0.3219804382324219,9.708361358642579,2.865640869140625
35948,0.4282594299316406,7.079378356933594,3.1256501770019534
36015,0.24069946289062502,7.7600129699707034,3.2418086242675783
36088,-0.001047821044921875,10.729537811279297,2.9702732849121096
36149,0.5387297058105469,9.167985076904298,4.1128472900390625
36215,-0.07035369873046875,7.175628204345704,3.083587646484375
36286,0.04221221923828125,10.745853881835938,3.9613623046875004
36348,-0.2884501647949219,9.43488006591797,3.4660423278808596
36415,0.18426681518554688,7.344776458740235,3.1183154296875
36482,1.3561798095703126,6.574627990722656,3.635340270996094
36548,1.2208612060546875,8.759334869384766,3.3256343078613284
36615,1.0520123291015626,8.375233612060548,4.054169311523438
36682,-0.035326538085937505,9.500294036865235,4.084406433105469
36748,0.7740403747558594,10.01686981201172,4.105961608886719
36815,0.8533753967285157,8.103997650146486,4.8578480529785155
36888,0.2721340942382813,9.58441909790039,3.8447547912597657
36949,1.7971627807617188,8.848848724365235,4.9404762268066404
37015,0.2423460388183594,9.91103988647461,4.233646087646485
37085,1.2832814025878907,7.643704833984375,4.302802276611328
37149,2.2409898376464845,8.797505493164063,4.063150634765625
37215,-1.0181826782226564,6.995253295898438,5.5341416931152345
37285,-0.07319778442382813,3.4230816650390627,3.428171081542969
37348,1.8073416137695313,6.33961669921875,5.15213607788086
37415,0.7677534484863282,8.740923156738281,5.4706736755371095
37486,0.10298583984375001,12.835658111572267,5.087919616699219
37549,-2.475252685546875,14.079421691894533,4.298161926269532
37615,-1.949396209716797,8.686436462402344,4.444557495117188
37689,0.45535308837890626,10.939700775146484,3.892505493164063
37748,1.2201127624511718,7.430248718261719,5.1976414489746094
37815,2.6527835083007814,7.963140563964844,7.6158627319335945
37887,5.583089904785156,6.582561492919922,6.444398803710937
37948,1.7622853088378907,7.770491180419922,2.9737161254882816
38015,-0.6159690856933594,8.684939575195314,4.279450836181641
38088,-3.1024484252929687,9.011260986328125,1.9943028259277344
38149,-2.123334503173828,6.336922302246094,2.360142059326172
38215,-0.17992584228515626,5.404211883544922,0.6200106811523438
38284,2.3044578552246096,4.284540252685547,4.124822387695312
38348,1.430724792480469,6.790030059814454,1.5196398925781252
38415,-0.3165916442871094,7.170838165283204,2.6370661926269534
38483,-2.069296875,10.68418212890625,4.004622344970703
38549,-3.769611053466797,11.946357421875001,4.9282017517089844
38615,-3.416794738769531,8.167765045166016,5.713917846679688
38690,-0.214354248046875,8.359665985107423,5.302722930908203
38748,1.2452604675292969,8.841663665771485,5.492677917480469
38815,2.9617410278320313,10.667416992187501,5.683081970214844
38888,2.8135491943359376,8.698112182617187,5.689518585205079
38948,0.9515711975097657,8.704698486328125,4.401147766113281
39015,-4.022884368896484,6.83822982788086,4.339925079345703
39086,2.841241607666016,8.863817596435547,0.4962181091308594
39149,2.678529968261719,10.092312927246095,3.979175262451172
39215,2.647394714355469,12.997022552490234,5.842799835205079
39287,-0.3629951477050781,15.096107482910156,4.470004577636719
39349,-1.3537847900390625,8.7418212890625,4.420307922363281
39415,-2.870281219482422,4.6746290588378905,3.1404693603515628
39486,-1.3385165405273438,11.820768585205078,4.0380029296875
39549,1.0904823303222657,13.273347930908203,3.782484283447266
39615,-0.3614982604980469,9.991722106933594,1.5307168579101564
39685,-0.5095404052734376,11.471844177246094,3.9207966613769534
39748,-0.8604107666015626,10.184670867919923,1.9609222412109375
39815,-2.0951930236816407,8.56833206176758,2.954256591796875
39882,-1.1951147460937501,9.281449127197266,5.1133666992187505
39949,0.3936813354492188,10.1548828125,2.930306396484375
40015,2.766097869873047,8.199499053955078,4.009861450195313
40082,1.6579522705078127,5.278323669433594,3.3522789001464846
40149,0.42167312622070313,5.491480407714844,2.4132815551757814
40215,0.4763095092773438,9.134604492187501,0.7071295166015625
40282,0.31210098266601566,9.293274536132813,5.3368519592285155
40349,1.3497431945800782,10.785970458984375,5.921386413574219
40415,1.4745835876464843,11.356434173583985,3.498824157714844
40482,-0.8996292114257813,9.356592864990235,3.9520816040039066
40548,0.005239105224609375,9.302405548095704,3.769611053466797
40615,-1.0303074645996095,6.513854370117188,5.030439147949219
40683,2.3510110473632815,14.795233154296875,-1.5015275573730469
40748,1.8308427429199219,7.118596801757813,4.8506629943847654
40815,-0.6379733276367188,8.77385467529297,3.1808853149414062
40884,0.08816665649414063,8.703800354003906,4.238286437988282
40949,-0.3243754577636719,8.277786254882812,4.217928771972656
41015,0.8650511169433595,7.669750671386719,3.3459919738769535
41084,0.36853363037109377,8.796158294677735,3.4292189025878907
41148,-1.1091934204101563,9.248517608642578,3.5878889465332033
41215,-1.4897021484375002,9.779613189697265,3.4013768005371094
41283,-1.6108003234863282,8.727451171875,4.269421691894531
41348,-0.17214202880859375,8.316256256103516,4.513114929199219
41415,0.7765850830078126,9.106313323974609,3.423680419921875
41483,1.739981689453125,9.112300872802734,3.0048513793945313
41549,0.43484573364257817,9.13939453125,2.9825477600097656
41615,0.6080355834960938,7.55149658203125,4.632716217041016
41682,-0.4424798583984375,9.236243133544923,4.842579803466797
41749,-1.9802320861816407,8.834927673339845,4.0475830078125
41815,0.8734336853027345,9.824519805908203,4.352648620605469
41882,-0.8827143859863281,8.49992431640625,2.548450469970703
41948,0.43918670654296876,8.878636779785158,3.197051696777344
42015,1.1732601928710937,9.79278579711914,3.2888108825683595
42082,1.8181192016601564,9.71988739013672,3.4658926391601566
42149,0.4098477172851563,9.740694122314453,4.119732971191406
42215,0.8565188598632812,10.551108856201173,4.842130737304688
42283,1.4795233154296876,10.550809478759767,0.6791377258300781
42347,0.7896080017089844,8.10235107421875,3.532803497314453
42415,1.7784516906738281,8.481362915039062,3.416495361328125
42487,0.17738113403320313,9.541009368896486,4.36612060546875
42548,0.18336868286132812,10.254126434326173,4.1710762023925785
42615,0.21615051269531252,9.242530059814454,4.515360260009766
42687,0.945883026123047,7.726931762695313,5.307363281250001
42748,1.28373046875,7.495962066650391,3.9543269348144534
42815,0.6803352355957032,8.103847961425782,4.191733245849609
42886,0.3852987670898438,8.701405334472657,4.310735778808594
42948,0.7289840698242188,9.04015090942383,5.3880455017089846
43015,0.40745269775390625,8.455466766357421,4.330644378662109
43081,-0.25731491088867187,9.365274810791016,5.0957034301757815
43148,-0.41568557739257816,9.944869537353517,5.621859283447266
43215,-0.5590873718261719,8.660091247558594,5.2437455749511726
43287,1.4060261535644532,7.268135833740235,3.169808349609375
43349,4.277355194091797,7.130871276855469,7.339088287353516
43415,1.3871653747558594,10.169402618408204,5.586383056640625
43486,-0.19384689331054689,5.350323944091797,2.8241770935058597
43548,1.8913169860839845,8.19141586303711,4.096680908203125
43615,2.9033624267578126,7.778873748779297,3.826941833496094
43682,2.022444305419922,8.945547637939454,3.5476226806640625
43748,2.9687763977050783,6.05700439453125,4.686005401611328
43815,-0.3104544067382813,9.810748443603517,2.1630020141601562
43888,-5.987698516845703,12.410841522216797,1.9868183898925782
43948,-3.492836608886719,4.279600524902344,6.750512237548828
44015,0.6662644958496095,8.412506103515625,5.617667999267578
44087,1.7161811828613283,12.171339569091797,5.167104949951172
44149,2.4541465759277346,9.474697265625,4.033063201904297
44215,1.8256036376953126,10.196196899414064,3.426823883056641
44287,1.981728973388672,7.5251513671875,3.507356414794922
44349,1.0783575439453126,8.704399108886719,3.7606297302246094
44415,-0.29069549560546876,9.860145721435547,4.455634460449219
44482,-0.23710693359375,9.683662719726563,3.1641201782226562
44548,0.19564315795898438,9.165440368652344,3.0949639892578125
44615,1.1276051330566408,9.166488189697267,3.5747163391113284
44682,1.0434800720214845,8.291707305908204,4.039649505615235
44748,0.8496331787109376,8.732390899658203,3.9944435119628907
44815,2.1124072265625,10.057884521484375,3.197201385498047
44887,1.1090437316894532,8.377928009033203,3.2695010375976565
44948,0.7062313842773438,9.991572418212892,3.1546897888183594
45015,0.8879534912109376,10.923085327148438,3.532354431152344
45087,0.3706292724609375,8.855584716796875,3.1964529418945316
45149,1.1600875854492188,7.96867904663086,4.092639312744141
45215,1.913470916748047,9.098529510498047,3.4685870361328126
45286,0.9336085510253906,8.825946350097656,3.845952301025391
45349,0.6441105651855469,9.055269470214844,2.7987300109863282
45415,0.7777825927734375,9.083111572265626,3.7486546325683596
45487,1.1479627990722656,9.719588012695313,3.8480479431152346
45548,0.40655456542968754,8.278684387207031,4.195774841308594
45615,0.20881576538085939,9.83963836669922,3.889212341308594
45691,-0.041613464355468754,10.450518035888672,4.313280487060547
45748,1.3558804321289064,8.700956268310547,3.6512072753906253
45815,-0.5066963195800781,8.728349304199218,4.363276519775391
45888,0.39772293090820315,8.823102264404298,3.299887847900391
45948,0.5891748046875,8.120313720703125,4.077520751953125
46015,0.6084846496582031,9.136700134277344,4.103566589355469
46082,0.3945794677734375,8.081244964599609,3.583098907470703
46148,0.3872447204589844,8.916508026123047,4.663851470947266
46215,0.5275030517578125,8.665030975341796,3.6980598449707034
46288,-0.20597167968750002,8.257578277587891,4.345762939453126
46349,0.641865234375,8.798403625488282,4.324507141113282
46415,0.6385720825195312,8.012537841796876,3.8803807067871094
46487,0.9145980834960938,8.359216918945313,4.531376953125
46548,1.1187734985351563,7.591912536621094,4.633614349365234
46615,1.056053924560547,9.734107818603515,4.5779301452636725
46682,-0.40386016845703127,9.273066558837892,5.239254913330078
46748,-0.09190887451171875,9.377100219726563,3.1427146911621096
46815,-1.4480886840820313,8.650960235595704,4.155957641601563
46887,0.7553292846679688,7.197632446289063,2.7032286071777345
46948,-0.04026626586914063,6.7587451171875,5.1536329650878905
47015,1.3790821838378906,7.999065856933594,4.197720794677735
47085,-0.63228515625,9.685309295654298,3.8082307434082034
47148,0.5189707946777344,9.876461791992188,4.279151458740235
47215,-0.037122802734375,8.358917541503907,4.361929321289063
47282,0.700393524169922,6.881789245605469,4.707111511230469
47349,-1.763632507324219,8.940308532714845,3.3305740356445312
47415,-4.677622833251953,8.108338623046876,4.243974609375
47482,-3.4325120544433596,10.086624755859376,5.324427795410156
47549,-0.805924072265625,10.785820770263673,5.8775276184082035
47614,1.1762539672851564,9.036259002685547,5.276677093505859
47684,1.9221528625488282,9.884395294189453,4.846771087646484
47748,1.9246975708007814,10.425370330810548,3.7386254882812504
47815,0.6463558959960938,8.735234985351562,4.259691925048829
47883,-0.7026388549804687,9.630972290039063,4.64394287109375
47949,-2.9427305603027345,9.511221313476563,3.6321968078613285
48015,-2.7030789184570314,8.447832641601563,3.706143035888672
48083,-0.18067428588867188,7.404651947021485,4.426894226074219
48149,0.6318360900878907,9.907896423339844,4.142036590576172
48215,0.7999365234375,8.819060668945314,3.572920074462891
48282,-0.5743556213378906,10.18931121826172,3.871399383544922
48349,0.13726455688476563,10.008038177490235,4.331841888427735
48415,-1.818867645263672,9.077722778320313,4.201163635253907
48482,-1.3046868896484376,8.415050811767578,4.5198509216308596
48549,-1.2475057983398439,8.89270751953125,3.839964752197266
48615,-1.2799882507324218,8.91141860961914,2.998564453125
48682,-4.157304840087891,10.84075653076172,7.521558837890625
48748,-1.4926959228515626,11.526779937744141,4.908592529296875
48815,-1.1864328002929687,9.502689056396484,4.975204010009766
48882,-0.22752685546875,9.853110351562501,4.426295471191406
48949,-2.7440936279296877,8.923244018554687,5.4935760498046875
49015,-3.231929168701172,9.210047607421876,4.889132995605469
49083,-1.943408660888672,8.830586700439454,5.261408843994141
49149,-1.4075230407714845,8.94779296875,5.30975830078125
49215,-1.2843292236328125,9.029373321533203,4.984784088134766
49283,-2.3213726806640627,9.945917358398438,3.639232177734375
49348,-2.3320005798339847,8.212671661376953,3.9363642883300782
49414,-1.6277151489257813,9.094038848876954,2.9764105224609376
49483,-1.6037649536132814,9.867480468750001,4.0601568603515625
49548,-1.8633251953125,8.42373275756836,3.953877868652344
49614,-2.4493565368652344,8.217012634277344,3.7110827636718753
49682,-3.316952362060547,8.580007781982422,3.861968994140625
49748,-2.8621980285644533,9.357041931152343,3.621119842529297
49815,-2.446362762451172,9.43488006591797,3.6374359130859375
49881,-1.756597137451172,9.254355468750001,3.7681141662597657
49948,-1.0437794494628907,8.738079071044922,3.3118629455566406
50015,-1.0098001098632814,9.330097961425782,3.480861511230469
50082,-0.37317398071289065,9.392817535400392,3.3614099121093752
50149,-0.06556365966796876,8.911568298339844,3.4548156738281253
50215,-0.7569758605957032,9.75147171020508,3.1581326293945313
50282,-0.7331753540039063,9.503587188720704,3.193908233642578
50349,-0.5047503662109375,9.05407196044922,3.2430061340332035
50415,-0.7813751220703126,8.983568572998047,3.3798216247558597
50482,-0.3646417236328125,9.446705474853516,3.2093261718750004
50549,-0.6691085815429688,9.793833618164063,3.866309967041016
50615,-0.3561094665527344,9.770482177734376,3.6971617126464844
50682,-0.3315605163574219,9.367669830322265,3.320694580078125
50748,0.11481124877929688,8.619076538085938,2.967728576660156
50815,-0.4436773681640625,9.696835327148438,3.014730834960938
50883,-1.2244537353515625,10.166259155273439,2.3144869995117188
50948,-0.09056167602539063,9.635163574218751,2.640359344482422
51015,-0.6099815368652344,10.344239044189454,2.637964324951172
51083,-0.015867004394531252,9.93828323364258,2.189796295166016
51148,-0.29533584594726564,9.397158508300782,2.496658172607422
51215,-0.3622467041015625,10.792107696533204,2.495760040283203
51282,-1.1030561828613281,9.249715118408204,2.069147186279297
51348,-1.2090357971191408,8.495882720947266,1.7548008728027344
51415,-1.0204280090332032,9.245374145507814,1.9543359375
51482,-0.000449066162109375,9.698930969238281,1.99265625
51549,-0.9219328308105469,9.02293670654297,2.2396426391601563
51615,-0.7420069885253907,9.648336181640625,2.5417144775390628
51682,-0.5355862426757813,9.039851531982423,2.7405010986328127
51748,-1.0343490600585938,10.299631805419923,3.2513887023925783
51815,-1.2256512451171875,9.140891418457032,3.0491592407226564
51882,-1.554217987060547,9.505682830810548,3.2064820861816408
51949,-1.4429992675781251,9.411828002929688,3.2790811157226565
52015,-0.314945068359375,9.483678588867187,2.9075537109375
52083,-1.0886860656738282,9.3070458984375,2.7304719543457034
52148,-0.6267466735839844,8.884774017333985,2.9163853454589845
52215,-1.162781982421875,10.06626708984375,2.825823669433594
52283,-1.3449531555175782,9.200916595458985,3.0364356994628907
52348,-1.2397219848632812,9.663155364990235,2.6707461547851565
52415,-1.4169534301757813,9.125623168945314,2.8445347595214847
52481,-0.7241940307617187,9.6231884765625,2.448608093261719
52548,-0.7179071044921875,9.51062255859375,2.419119415283203
52615,-1.5344590759277346,10.23915756225586,3.2036380004882816
52684,-1.641785888671875,10.0351318359375,3.0972093200683597
52748,-1.332528991699219,9.98917739868164,2.8324099731445314
52815,-0.47436355590820317,9.557924194335937,2.188748474121094
52883,-1.0102491760253907,9.79607894897461,2.8827053833007814
52949,-1.402283935546875,9.775421905517579,2.525697784423828
53015,-0.5758525085449219,9.878108367919923,2.7226881408691406
53082,-1.011895751953125,9.380093994140626,2.1281245422363284
53149,-1.464404754638672,8.160579986572266,2.6735902404785157
53215,-1.2217593383789063,9.680369567871095,2.4866290283203125
53282,-1.2831317138671876,10.516830139160156,2.6050328063964847
53349,-0.721948699951172,9.891580352783203,2.1903950500488283
53415,-0.6521937561035157,9.81134719848633,2.536175994873047
53482,-0.63947021484375,9.874216461181641,3.1500494384765627
53549,-0.16525634765625,10.501262512207031,2.570754089355469
53615,-2.0184027099609376,9.190438385009767,3.4651441955566407
53682,-1.9845730590820314,8.965156860351563,3.1219079589843752
53748,-1.521885223388672,9.148226165771485,3.0897248840332034
53815,0.2471360778808594,9.387728118896485,2.87162841796875
53883,-0.3011737060546875,9.304351501464843,3.0265562438964846
53948,-0.22034179687500002,8.935668182373048,2.534679107666016
54015,-1.1060499572753906,10.774294738769532,2.518063659667969
54082,-1.0448272705078125,10.117610321044923,2.951262817382813
54149,-0.7529342651367188,9.692045288085938,2.934946746826172
54215,-1.1118878173828126,9.52065170288086,2.742147674560547
54281,-0.5044509887695313,9.272916870117188,2.767145690917969
54349,-0.6749464416503906,8.996292114257812,3.467688903808594
54415,-1.1217672729492187,9.370513916015625,3.1470556640625
54482,-0.1525328063964844,10.141261138916017,2.883453826904297
54549,-0.11451187133789063,9.713001708984375,2.943329315185547
54615,-0.08083190917968751,8.839867401123048,2.864593048095703
54682,-0.5177732849121094,9.05122787475586,2.8324099731445314
54748,-0.8041278076171875,10.38719970703125,2.1670436096191406
54815,-0.6614744567871094,10.220147094726563,2.3510110473632815
54883,-0.6026467895507813,10.004146270751953,2.4536975097656253
54949,0.34862503051757815,9.62363754272461,1.9408639526367188
55015,0.2728825378417969,8.778495025634767,2.482437744140625
55083,-0.13322296142578124,8.782686309814453,2.289339294433594
55149,-1.4178515625,9.655820617675781,1.7863851928710939
55215,-0.7702981567382813,9.80565902709961,1.8615289306640626
55282,-0.33290771484375004,9.583670654296876,2.458786926269531
55348,-0.286204833984375,8.774603118896485,2.253563690185547
55415,0.19594253540039064,9.468709716796875,2.1477337646484376
55482,-0.2947370910644531,9.99965560913086,1.7720150756835937
55549,-0.3872447204589844,9.915680236816407,1.8047969055175783
55615,-1.3452525329589844,10.801837463378908,2.90036865234375
55682,-1.3536351013183594,11.126063232421876,2.772235107421875
55748,-0.6403683471679688,9.163045349121095,1.9868183898925782
55815,-1.3310321044921876,8.580157470703126,1.9236497497558596
55883,-1.8826350402832033,9.306297454833985,2.175575866699219
55949,-1.2711566162109376,10.086026000976563,2.0517832946777346
56015,-1.986668701171875,9.38413558959961,2.399659881591797
56083,-2.2306613159179687,11.48262176513672,1.713636474609375
56149,-1.3201048278808594,11.179502105712892,1.1606863403320313
56215,-1.5524217224121095,10.19889129638672,0.9684860229492188
56282,-0.3333567810058594,8.193511505126953,1.137484588623047
56348,0.45146118164062504,10.393786010742188,0.8614585876464844
56415,0.3394940185546875,10.84794158935547,0.4245172119140625
56482,-0.314945068359375,8.849896545410157,0.7259902954101562
56549,-0.46912445068359376,9.285640411376953,1.0349478149414062
56615,0.6349795532226563,9.887987823486329,0.28725265502929687
56682,-0.6661148071289062,9.923464050292969,0.20447479248046876
56748,-0.03502716064453125,9.91582992553711,0.9705816650390625
56815,-0.2836601257324219,9.841734008789063,1.1240126037597657
56882,-0.9632469177246095,9.87122268676758,1.1588900756835938
56949,-0.7879614257812501,9.639803924560548,0.64905029296875
57015,-0.11361373901367187,8.712482299804687,0.4613406372070313
57083,0.17812957763671877,9.258696441650391,-0.31883697509765624
57149,-1.978136444091797,10.724598083496094,-0.4481680297851563
57215,-0.8497828674316407,10.53374496459961,-0.183218994140625
57284,0.013621673583984376,9.248667297363282,0.8482859802246094
57348,-0.13516891479492188,8.564589843750001,0.9346563720703126
57414,-0.6685098266601562,9.058263244628908,0.918489990234375
57482,-0.9839039611816407,10.433603210449219,2.645149383544922
57548,-0.2667453002929688,9.81,2.225122833251953
57615,0.1525328063964844,9.63995361328125,2.253563690185547
57683,-0.2423460388183594,9.69593719482422,2.629581756591797
57748,-0.355660400390625,8.477770385742188,1.7040563964843751
57815,-0.3016227722167969,8.329279174804688,1.8245558166503908
57882,0.020207977294921877,9.018296356201173,2.5090823364257813
57948,0.7259902954101562,10.48389862060547,1.2898677062988282
58015,0.10148895263671875,9.914183349609376,2.0122654724121096
58083,-0.08906478881835939,9.190737762451173,2.908302154541016
58149,0.8018824768066407,11.693832550048828,2.1076171875000003
58215,0.5466632080078125,10.484946441650392,2.3237677001953125
58283,-0.09834548950195313,8.534203033447266,2.416125640869141
58347,0.9342073059082032,13.61179412841797,4.805307312011719
58414,-0.09355545043945312,12.01386703491211,3.477268981933594
58481,0.8870553588867188,8.885223083496093,2.8674371337890627
58548,0.888402557373047,8.693022766113282,2.9925769042968753
58615,-0.132923583984375,8.933273162841797,2.1727317810058593
58682,0.5129832458496094,13.568833465576173,2.7901977539062504
58748,-0.00808319091796875,9.993069305419922,2.7152037048339843
58815,2.1706361389160156,8.1286962890625,3.297343139648438
58882,1.4516812133789063,10.081385650634767,2.9621900939941406
58949,1.2133767700195313,11.89127197265625,2.0251387023925784
59015,0.20133132934570314,10.087822265625,4.06868911743164
59088,0.5489085388183594,10.461145935058594,2.1510269165039064
59148,1.8437159729003907,7.388186187744141,3.409310302734375
59215,0.9574090576171875,6.043233032226563,1.1731105041503906
59287,0.475411376953125,8.192014617919922,2.0246896362304687
59348,0.647852783203125,10.319989471435548,2.1507275390625002
59415,0.8575666809082032,8.082891540527344,3.0895751953125004
59482,-0.04805007934570313,7.260651397705079,3.0162277221679688
59549,0.223934326171875,9.98917739868164,3.160078582763672
59615,-0.749491424560547,11.183543701171876,4.359983367919922
59685,-0.23546035766601564,8.118068389892578,3.0035041809082035
59749,0.06556365966796876,10.696306915283204,1.5380516052246094
59815,-0.8713380432128907,9.149273986816407,0.6782395935058594
59882,0.74964111328125,8.955576782226563,3.2227981567382815
59950,-0.17498611450195314,8.599766693115235,3.224594421386719
60015,-0.6870712280273438,9.4603271484375,3.4804124450683593
60083,-1.0084529113769531,9.336534576416016,2.797532501220703
60149,-1.1141331481933594,10.027198333740236,4.123924255371094
60215,-0.9086105346679688,9.655670928955079,2.741997985839844
60287,-0.48573989868164064,6.684649200439454,2.5309368896484377
60349,0.8976832580566406,9.226213989257813,0.8077203369140625
60415,-1.4988331604003906,8.518934783935547,3.5589990234375
60486,0.38320312500000003,12.162807312011719,3.455713806152344
60549,0.3553610229492188,12.106075286865234,4.977449340820312
60615,0.499361572265625,9.206455078125,3.4916390991210937
60683,-1.5118560791015625,9.689350891113282,2.151625671386719
60748,2.4289988708496093,8.34140396118164,4.312232666015626
60815,-0.09520202636718751,2.1941372680664064,3.118016052246094
60884,1.655108184814453,6.270460510253907,3.783831481933594
60948,0.5623805236816406,9.008865966796876,2.5167164611816406
61015,-0.3273692321777344,5.755082244873047,6.365063781738281
61084,1.8657202148437502,4.618046722412109,3.561094665527344
61148,0.6063890075683595,5.793701934814454,2.697690124511719
61215,0.42346939086914065,7.297774200439454,3.17819091796875
61285,0.288599853515625,6.593189392089844,1.9079324340820314
61348,0.5447172546386719,10.053842926025391,4.02123779296875
61415,0.8146060180664063,10.09111541748047,3.131338348388672
61486,-2.1022283935546877,7.686964874267579,0.8503816223144531
61548,1.80823974609375,8.674461364746094,4.875211944580078
61615,0.32721954345703125,8.401129760742188,3.6649786376953126
61685,0.46717849731445316,8.663833465576172,3.121309204101563
61748,-1.011596374511719,7.069199523925781,3.652255096435547
61815,0.19878662109375,5.752836914062501,5.533542938232422
61882,-0.32677047729492187,8.981472930908204,1.1415261840820312
61949,1.0639874267578127,9.491761779785156,0.40775207519531254
62015,0.33799713134765624,9.840985565185548,3.8380187988281254
62086,1.7449214172363283,10.315648498535158,2.5029450988769533
62149,-0.3333567810058594,12.99193313598633,2.7542724609375
62215,-0.6631210327148438,11.376043395996094,5.912854156494141
62282,0.79275146484375,10.321037292480469,2.6339227294921876
62348,0.9165440368652344,10.480156402587891,0.49472122192382817
62415,0.19878662109375,7.659422149658203,2.728526000976563
62483,0.6875202941894532,6.391558685302734,3.4118550109863284
62549,-0.6128256225585937,7.903863830566407,3.1343321228027343
62615,1.2413685607910157,7.649842071533204,3.9079234313964846
62685,0.9409432983398438,6.382277984619141,2.651885375976563
62748,-0.0056881713867187505,9.871671752929688,3.4431399536132816
62815,-1.4229409790039063,9.505533142089844,3.370391235351563
62885,-2.308649139404297,8.079448699951172,3.902834014892578
62948,-1.1407777404785158,10.90212890625,3.7414695739746096
63015,0.4550537109375,13.119318237304688,1.600920867919922
63086,-2.082170104980469,10.969488830566407,0.7656578063964844
63148,-1.233285369873047,13.090727691650391,4.710404663085938
63215,-0.5204676818847657,7.891289978027344,2.762355651855469
63284,0.23441253662109376,8.345146179199219,2.19623291015625
63348,1.0916798400878907,9.497300262451173,4.07392822265625
63415,0.0401165771484375,8.173602905273437,2.738106079101563
63486,-1.4013858032226563,9.39221878051758,2.482288055419922
63549,-1.0373428344726563,10.566526794433594,3.4841546630859375
63615,-0.33724868774414063,10.41010208129883,1.9143690490722658
63688,-1.5355068969726564,8.532257080078125,4.764142913818359
63748,-0.6081852722167969,10.67220703125,3.231031036376953
63815,0.3884422302246094,8.205636291503907,4.314328308105469
63884,-1.1286529541015626,8.005352783203126,3.044219512939453
63948,-1.6287629699707031,7.7636054992675785,3.3941917419433594
64015,-0.137713623046875,9.948462066650391,4.098626861572265
64087,-1.17116455078125,8.764424285888673,4.276157684326172
64149,-0.7782316589355469,7.361092529296875,3.212769012451172
64215,0.49876281738281253,8.58419906616211,3.1677127075195313
64281,0.18531463623046876,9.969119110107423,3.1966026306152346
64349,-0.8384065246582032,11.024125213623048,2.9184809875488282
64415,-2.3809487915039065,9.963580627441408,3.1762449645996096
64481,0.17573455810546876,8.364605712890626,3.096909942626953
64549,-0.30132339477539066,7.905360717773438,3.228186950683594
64615,-1.7808467102050782,9.68111801147461,4.780608673095704
64681,-1.2171189880371094,11.320658569335938,3.060385894775391
64748,-0.018112335205078125,9.413624267578125,3.148103485107422
64815,-1.0641371154785157,9.509574737548828,2.559078369140625
64881,-2.4899221801757814,11.512709197998047,3.4890943908691407
64948,-1.205742645263672,11.836934967041016,4.00686767578125
65015,-0.8878038024902344,7.350614318847657,3.9447468566894535
65081,-0.18770965576171875,9.740394744873047,2.605332183837891
65149,0.38739440917968754,7.474556579589844,3.4816099548339845
65215,-1.9107765197753908,10.328372039794923,3.387755126953125
65281,-0.2927911376953125,8.500822448730469,3.5748660278320314
65349,0.532891845703125,7.428452453613281,3.589685211181641
65415,-0.1742376708984375,8.251441040039063,4.159400482177735
65481,-1.3248948669433593,10.410700836181642,3.94938720703125
65548,-0.3059637451171875,10.412497100830079,5.584736480712891
65615,0.6397695922851563,8.661438446044922,3.8242474365234376
65681,-1.2663665771484376,9.24043441772461,3.3190480041503907
65749,-0.27393035888671874,8.865763549804688,2.887944488525391
65815,-0.3375480651855469,8.696615295410156,2.7797195434570314
65881,-2.025887145996094,10.508597259521485,3.925586700439453
65948,-1.1135343933105468,9.365873565673828,4.157155151367188
66015,-1.1120375061035157,8.560997314453125,3.6898269653320312
66081,-1.7248631286621094,9.287586364746094,3.605701904296875
66149,-1.214424591064453,9.087452545166016,3.416645050048828
66215,-1.2798385620117188,8.601862335205078,3.2780332946777344
66281,-1.7103433227539064,9.205856323242188,3.552712097167969
66349,-1.1466156005859376,8.991951141357422,3.1784902954101564
66415,-2.0434007263183593,9.035211181640625,3.403023376464844
66481,-1.633253631591797,8.459059295654297,3.054398345947266
66549,-1.7360897827148438,8.51564163208008,2.7066714477539064
66615,-1.7025595092773438,9.513616333007812,2.8960276794433595
66681,-1.3789324951171875,9.875264282226563,1.9260447692871094
66748,-0.7575746154785157,8.789272613525391,2.465223541259766
66815,-0.44876678466796877,8.46250213623047,1.4377601623535157
66881,-0.7273374938964844,7.998616790771485,2.1330642700195312
66948,-0.8470884704589844,10.7680078125,3.9592666625976562
67015,-3.583847351074219,7.478747863769532,3.948938140869141
67081,-3.576961669921875,9.43353286743164,4.292024688720703
67148,-2.1472846984863283,9.263187103271484,2.4794439697265624
67215,-0.7789801025390626,8.852590942382813,3.5814523315429687
67281,0.018860778808593753,10.085127868652345,2.4189697265625
67349,-1.5739768981933595,9.927655334472657,1.9532881164550782
67415,-0.3932322692871094,10.699749755859376,2.5939558410644534
67481,-0.08876541137695312,11.33517837524414,2.9663813781738284
67549,-1.0687774658203126,8.543334045410157,2.9668304443359377
67615,-1.7269587707519531,6.340365142822266,4.142635345458984
67681,0.09744735717773438,7.465126190185547,1.9691551208496094
67749,-1.0181826782226564,8.486602020263673,2.277513885498047
67815,-1.6000227355957033,10.242301025390626,3.8413119506835938
67881,-0.5372328186035157,8.897796936035157,2.7668463134765626
67948,-0.4194277954101563,8.835526428222657,2.119741973876953
68015,-0.8443940734863282,9.089847564697266,2.309098205566406
68081,-0.21689895629882813,9.025930480957031,2.632276153564453
68149,0.2411485290527344,8.743916931152345,3.0002110290527346
68215,0.25342300415039065,8.99898651123047,2.3403831481933595
68281,-0.4474195861816406,9.854158172607422,2.9327014160156253
68349,0.11660751342773439,9.877808990478517,2.5777894592285158
68415,-0.17753082275390625,9.221124572753906,3.276536407470703
68481,0.14759307861328125,9.024283905029296,2.925067291259766
68548,-0.24459136962890626,9.843829650878908,1.59029296875
68615,-1.1189231872558594,6.729106750488282,3.1127769470214846
68681,-0.7360194396972657,7.191644897460938,3.627107391357422
68749,-0.8276289367675782,10.223889312744141,3.1057415771484376
68815,0.13801300048828125,9.254205780029297,4.757406921386719
68881,0.6176156616210938,9.59205322265625,3.7116815185546876
68949,0.49951126098632814,9.468859405517579,1.5766712951660158
69015,-0.5069956970214844,12.760963439941406,4.111051025390625
69081,-1.6390914916992188,6.70844970703125,3.567231903076172
69149,-1.1359877014160156,9.203012237548828,1.6413368225097658
69215,-0.5804928588867188,8.749904479980469,5.12100082397461
69281,-1.076411590576172,10.835218048095705,1.0591973876953125
69348,-0.20597167968750002,9.539662170410157,4.117637329101563
69415,0.8029302978515626,11.364966430664063,5.4266651916503905
69481,-2.192341003417969,10.168354797363282,0.06586303710937501
69548,1.1802955627441407,9.302854614257813,-1.0154882812500001
69615,-2.083068237304688,6.371949462890625,3.819756774902344
69681,-2.0107685852050783,10.890453186035156,0.8568182373046875
69748,0.8557704162597657,12.812905426025392,1.3659095764160156
69815,-0.03622467041015625,13.430221710205078,1.090931396484375
69881,6.778953094482422,7.33160385131836,1.0747650146484375
69948,-5.482499084472656,13.906830596923829,0.564027099609375
70015,2.2047651672363284,20.612735595703125,0.17992584228515626
70081,-0.74006103515625,14.270274810791017,6.104605407714844
70148,1.8302439880371095,6.993157653808594,0.5319937133789063
70215,0.9922865295410157,6.205645294189454,-0.6518943786621094
70281,3.05364990234375,6.318809967041016,2.642754364013672
70349,0.2951861572265625,11.389365692138673,4.577630767822266
70415,-0.2125579833984375,9.550888824462891,5.024601287841797
70481,-0.24533981323242188,8.976682891845703,2.492017822265625
70548,-1.5250286865234375,11.736194458007812,5.485343170166016
70615,0.6662644958496095,9.666598205566407,4.470753021240235
70681,-2.6204507446289065,12.171638946533204,5.46109359741211
70748,-1.006956024169922,11.318562927246095,5.293142852783204
70815,-0.5411247253417969,12.374916229248047,3.7486546325683596
70881,-0.17109420776367187,12.073892211914064,4.309388580322266
70948,-0.3441343688964844,10.252928924560548,4.487368469238281
71015,0.1435514831542969,11.102113037109376,3.001857604980469
71081,0.4818479919433594,10.804980926513672,3.322939910888672
71149,0.12424163818359375,10.887459411621094,3.2168106079101566
71215,-0.18232086181640625,9.53172866821289,3.0558952331542972
71281,0.5884263610839844,9.317673797607423,2.645448760986328
71348,0.4788542175292969,11.394904174804688,2.129920806884766
71415,0.012723541259765625,9.041049041748048,3.133583679199219
71481,-1.5280224609375002,11.309132537841798,3.0728100585937503
71548,-0.5962101745605469,10.235265655517578,4.800666961669922
71615,2.3664289855957032,9.574090576171875,5.490282897949219
71681,1.264420623779297,7.224576416015625,3.5816020202636722
71749,-0.9717791748046876,8.243357849121095,3.4979260253906252
71815,0.48529083251953126,11.323802032470704,2.533780975341797
71881,0.07888595581054687,8.308023376464844,4.471052398681641
71949,-0.7993377685546875,10.767109680175782,2.694995727539063
72015,0.3661386108398438,6.795269165039063,3.67635498046875
72081,0.7694000244140625,9.355545043945312,3.2061827087402346
72148,-1.0071057128906251,13.476026458740234,3.934717712402344
72215,0.48618896484375,9.935888214111328,4.719086608886719
72281,2.020049285888672,6.824458465576172,2.684367828369141
72349,-0.6062393188476562,8.744216308593751,3.7811370849609376
72415,0.22752685546875,9.239236907958984,4.370760955810547
72481,-0.1435514831542969,10.312804412841798,4.091142425537109
72549,0.5706134033203125,8.114924926757812,4.297563171386719
72615,-0.2552192687988281,8.111033020019532,4.391567687988282
72681,-0.9229806518554688,7.4389306640625,4.411476287841797
72748,0.9379495239257813,10.847043457031251,4.209995269775391
72815,0.2896476745605469,9.471254425048828,3.2947984313964844
72881,-0.21330642700195312,11.842174072265626,3.495381317138672
72949,0.10029144287109376,9.160650329589844,5.642666015625
73015,0.4782554626464844,9.295220489501954,5.268444213867188
73081,0.22303619384765627,8.5310595703125,4.621040496826172
73149,0.651295623779297,8.974736938476562,4.523144073486328
73215,0.6294410705566407,8.936117248535156,4.32301025390625
73281,0.7714956665039063,9.482930145263673,4.56296127319336
73348,0.006885681152343751,8.756341094970704,4.2854383850097655
73415,0.37901184082031253,9.088051300048829,4.629722442626953
73481,0.8494834899902344,8.662037200927735,5.041216735839844
73549,-0.0987945556640625,9.781858520507813,5.22353759765625
73615,0.3811074829101563,8.463400268554688,4.961582336425781
73681,0.24938140869140626,9.689650268554688,4.836442565917969
73749,0.4632865905761719,9.24282943725586,4.942571868896485
73815,0.7915539550781251,9.049281921386719,5.094805297851563
73881,0.542322235107422,9.018446044921875,4.933141479492188
73949,0.5361849975585937,9.2351953125,4.475992126464844
74015,0.3673361206054688,9.449699249267578,4.3445654296875
74081,0.3806584167480469,8.244405670166016,3.6777021789550783
74149,-0.4243675231933594,8.589737548828126,4.521796875000001
74215,1.0100994873046876,8.527017974853516,4.715494079589844
74281,1.1286529541015626,8.655600585937501,4.680766296386719
74349,-1.1343411254882814,5.655539245605469,3.5822007751464846
74415,-0.7990383911132813,6.894063720703126,3.4353561401367188
74481,1.3199551391601563,9.900411987304688,4.537813568115235
74548,-0.000449066162109375,9.21259231567383,4.888534240722657
74615,0.37631744384765625,9.053772583007813,4.935835876464844
74681,-0.09894424438476564,9.302854614257813,5.355413360595703
74749,-0.6786886596679688,8.690777435302735,6.028413848876953
74815,0.4421804809570313,7.56586669921875,5.727240142822266
74881,0.31853759765625,8.86920639038086,5.038821716308594
74948,0.11316467285156251,8.563092956542969,5.241350555419922
75015,0.21225860595703125,8.703800354003906,5.201683044433594
75081,0.010627899169921875,9.787397003173828,4.484374694824219
75149,-0.1538800048828125,8.768465881347657,5.063370666503906
75215,0.7279362487792969,8.218210144042969,4.607269134521484
75281,-0.2625540161132813,8.59856918334961,5.057083740234376
75349,0.08367599487304687,8.522826690673828,4.881049804687501
75415,0.4164340209960938,8.659791870117187,4.581822052001954
75481,-0.026345214843750003,9.026978302001954,4.791535949707032
75549,-0.00508941650390625,9.026379547119141,4.290378112792969
75615,-0.2760260009765625,9.651180267333984,4.516707458496094
75681,-0.2442919921875,8.916508026123047,4.411176910400391
75749,-0.4846920776367188,6.89092025756836,3.6095938110351566
75815,0.4315525817871094,8.39589065551758,3.2190559387207034
75881,0.39532791137695317,9.36497543334961,3.0919702148437502
75948,-0.4902305603027344,10.204878845214845,3.1979498291015624
76015,-0.4022135925292969,9.021140441894532,2.877765655517578
76081,-0.5789959716796875,9.860594787597657,3.1057415771484376
76149,-1.076411590576172,9.753866729736329,2.7701394653320315
76215,-1.0385403442382812,9.571695556640625,2.6002427673339845
76281,0.17483642578125,9.423054656982423,3.1078372192382813
76349,0.5414241027832032,9.593550109863282,2.788850555419922
76415,0.8339158630371094,9.77407470703125,2.563718719482422
76481,0.374820556640625,9.267378387451172,2.7304719543457034
76549,0.11570938110351563,9.592352600097657,3.0126351928710937
76615,-0.24489074707031253,9.586065673828125,2.678230590820313
76681,0.4535568237304688,9.167685699462892,3.048710174560547
76749,0.05059478759765625,8.81172592163086,2.8240274047851566
76815,0.44622207641601563,8.5885400390625,2.368973693847656
76881,1.6977694702148438,7.176676025390625,3.4157469177246096
76949,-0.8376580810546875,12.060120849609376,4.306394805908203
77015,-0.6786886596679688,10.060728607177735,3.9609132385253907
77081,-0.3246748352050781,9.814041595458985,3.1885194396972656
77149,0.6994953918457032,9.476044464111329,2.0972886657714844
77215,0.11825408935546876,9.308692474365236,2.8372000122070316
77281,-0.13921051025390627,9.846224670410157,1.926493835449219
77349,0.31569351196289064,8.688681793212892,2.4710614013671877
77415,2.7199937438964845,8.544681243896484,2.014061737060547
77481,2.5394691467285155,7.621550903320313,3.6383340454101565
77549,-0.6773414611816406,11.640094299316408,1.743274841308594
77615,-1.2707075500488283,10.404713287353516,1.2650193786621093
77681,-1.7559983825683594,10.983709259033203,2.1918919372558596
77749,0.4390370178222657,10.515782318115235,3.170706481933594
77815,3.23088134765625,9.705816650390625,1.6926800537109377
77881,1.7058526611328126,9.71180419921875,2.574496307373047
77949,1.4450949096679688,9.220376129150392,2.9713211059570312
78015,4.35654052734375,10.824440460205079,3.6528538513183597
78081,2.937341766357422,10.682535552978516,3.4099090576171878
78149,1.3849200439453127,9.050928497314453,2.790048065185547
78215,3.0058992004394534,6.020330657958985,1.418899383544922
78281,0.8047265625000001,10.762319641113281,2.0026853942871097
78349,1.4681469726562502,9.39611068725586,2.7093658447265625
78415,2.386636962890625,8.56653579711914,2.197280731201172
78481,2.9930259704589846,7.84174301147461,3.5211277770996094
78549,4.572691040039063,11.99231185913086,2.748434600830078
78615,2.6039849853515626,9.247469787597657,2.408790893554688
78681,2.3939717102050784,7.694748687744141,3.846101989746094
78749,-0.0016465759277343752,10.818003845214845,2.29203369140625
78815,-1.428629150390625,9.781110076904298,2.8434869384765626
78881,-1.06578369140625,9.641600189208985,2.9201275634765627
78949,1.0422825622558594,8.791218566894532,2.558928680419922
79014,2.026036834716797,9.568252716064453,2.009571075439453
79081,2.424807586669922,10.218350830078126,2.7256819152832032
79149,3.0696665954589846,7.615413665771484,2.2326072692871093
79215,1.8544935607910158,9.735305328369142,2.446512451171875
79281,0.7641609191894532,9.856553192138673,2.7294241333007814
79349,1.0870394897460938,8.872798919677734,2.2314097595214846
79415,-0.18037490844726564,9.054670715332032,2.655627593994141
79481,0.12349319458007812,10.189011840820314,1.6079562377929688
79549,0.10074050903320313,8.909622344970703,1.8640736389160157
79615,1.4810202026367187,10.927126922607423,1.7012123107910158
79681,2.3370899963378906,8.705446929931641,2.1835093688964844
79748,0.8141569519042969,8.877139892578125,1.8544935607910158
79815,1.0234217834472656,8.455915832519532,1.9570303344726563
79881,0.7949967956542969,8.886270904541016,1.1666738891601562
79948,1.671573944091797,10.933862915039063,0.7476951599121094
80015,1.4031820678710938,9.623787231445313,0.904119873046875
80081,0.6439608764648438,10.11895751953125,1.5115567016601563
80149,0.536484375,10.187215576171875,1.4042298889160156
80215,1.0346484375,9.932295684814454,1.1002120971679688
80281,1.5117063903808594,9.93738510131836,0.5858816528320313
80348,1.1813433837890626,10.107281799316407,1.3224998474121095
80415,0.9385482788085938,9.086404724121094,0.8044271850585938
80481,0.32901580810546877,10.818153533935547,0.9858499145507813
80549,0.026195526123046875,10.487191772460937,0.08068222045898438
80615,0.7283853149414062,9.901310119628906,0.5810916137695313
80681,0.871637420654297,10.465337219238283,1.0003697204589845
80749,0.9969268798828126,9.090146942138672,0.9812095642089844
80815,1.3213023376464845,10.50979476928711,0.8467890930175782
80881,1.094673614501953,9.869576110839844,1.1786489868164063
80949,1.2410691833496095,9.979297943115235,0.7301815795898438
81015,0.5179229736328125,10.776240692138673,0.9059161376953125
81081,0.6807843017578126,9.366622009277345,1.9736457824707032
81149,-0.29907806396484377,8.174351348876954,3.078498229980469
81215,0.8901988220214844,8.434809722900392,2.6122178649902343
81281,0.4110452270507813,8.469537506103515,2.7993287658691406
81348,1.6344511413574219,8.89315658569336,1.364113311767578
81415,-0.07035369873046875,9.534273376464844,1.8562898254394533
81481,1.1924203491210938,9.306147766113282,2.9035121154785157
81549,-0.59156982421875,8.896599426269532,2.608325958251953
81615,0.6926097106933594,9.099577331542969,2.572101287841797
81681,0.944835205078125,8.609795837402345,2.438728637695313
81749,1.6479231262207032,6.467301177978516,1.7269587707519531
81815,0.14040802001953126,9.611812133789064,1.8857785034179688
81881,1.387764129638672,10.741363220214843,2.429298248291016
81949,0.2736309814453125,9.241781616210938,2.8542645263671877
82015,1.1431727600097656,8.38301742553711,2.797532501220703
82081,0.966390380859375,10.284513244628906,3.3579670715332033
82149,0.8662486267089844,9.276210021972657,2.7665469360351564
82215,0.5394781494140626,9.66480194091797,2.5569827270507814
82281,-0.3342549133300781,9.78021194458008,2.9163853454589845
82348,0.25237518310546875,9.924362182617188,2.662064208984375
82415,1.4681469726562502,8.655600585937501,2.6667045593261722
82481,0.9023236083984375,9.635462951660157,2.8098069763183595
82549,0.07559280395507813,9.372759246826172,2.5632696533203125
82615,0.07708969116210938,9.933942260742189,3.4452355957031253
82681,-0.17528549194335938,8.249794464111329,2.671793975830078
82749,1.6724720764160157,8.866961059570313,2.521506500244141
82815,1.3108241271972656,9.115294647216798,2.5598268127441406
82881,0.5584886169433594,8.59662322998047,3.567231903076172
82949,0.35820510864257815,10.714269561767578,2.6755361938476563
83015,0.7399113464355469,9.315877532958984,3.1416668701171875
83081,0.07379653930664062,9.896220703125001,3.1025981140136722
83149,1.3335768127441407,8.505462799072266,2.6659561157226563
83215,0.7692503356933594,9.49954559326172,2.4969575500488284
83281,1.597178649902344,9.375303955078126,2.7895989990234376
83349,0.6424639892578126,10.075547790527343,2.7137068176269534
83415,0.11945159912109375,8.469537506103515,2.5997937011718752
83481,1.1549981689453126,11.992162170410158,2.716999969482422
83549,1.0662327575683594,10.61712158203125,4.637356567382812
83615,2.9978160095214847,7.344028015136719,1.9766395568847657
83682,0.85502197265625,7.961793365478516,1.7013619995117188
83748,1.8576370239257813,9.422755279541017,2.082768859863281
83815,0.3525169372558594,10.862910461425782,2.655777282714844
83881,1.1969110107421876,10.5237158203125,2.894979858398438
83949,0.8872050476074219,9.885293426513673,1.6413368225097658
84015,0.6448590087890625,11.71493865966797,2.2408401489257814
84081,1.1569441223144532,10.646909637451172,3.1257998657226564
84149,-0.6737489318847657,11.864477691650391,3.695215759277344
84215,0.14594650268554688,10.348580017089844,2.4156765747070312
84281,-0.6242019653320313,10.314151611328125,2.7198440551757814
84349,0.5414241027832032,8.637787628173829,2.678380279541016
84415,0.8187973022460938,8.537496185302734,3.22130126953125
84481,0.6397695922851563,9.465715942382813,2.913391571044922
84549,-1.2319381713867188,9.171577606201172,4.180955657958984
84615,1.68369873046875,7.846682739257813,2.4860302734375
84681,2.058519287109375,8.991651763916016,2.6587710571289063
84748,1.460812225341797,7.6950480651855475,2.076032867431641
84815,0.053738250732421874,8.436007232666016,2.9590466308593752
84881,1.2558883666992189,8.180189208984375,3.293900299072266
84950,0.9647438049316407,10.872640228271486,3.3751812744140626
85015,1.156644744873047,7.831414489746094,2.908601531982422
85081,-0.04894821166992188,10.04231689453125,3.326981506347656
85149,-0.034877471923828125,10.240804138183595,2.844983825683594
85215,-0.044008483886718755,11.272907867431641,2.771187286376953
85281,0.6212081909179688,10.766959991455078,3.6194732666015628
85349,-0.24264541625976563,9.080866241455078,3.239114227294922
85415,0.18696121215820313,8.218359832763673,3.7911662292480472
85481,1.5405963134765626,9.681267700195313,2.539768524169922
85549,-0.060923309326171876,11.766880645751954,2.8837532043457035
85615,-0.16181350708007813,11.768078155517578,4.088897094726563
85681,0.16480728149414064,8.94105697631836,3.4226325988769535
85749,1.4486874389648439,9.477092285156251,3.3332684326171877
85815,0.6207591247558594,8.540190582275391,3.2389645385742187
85881,0.209564208984375,10.947035522460938,2.7867549133300784
85949,-0.11346405029296876,6.917564849853516,3.3483869934082033
86015,-0.5334906005859376,10.474617919921876,3.013832702636719
86081,-0.1383123779296875,9.539213104248047,3.509452056884766
86149,0.2716850280761719,11.122770080566406,2.7891499328613283
86215,0.24144790649414063,9.56855209350586,3.1183154296875
86281,-0.23935226440429688,8.100554809570314,3.0662237548828126
86349,1.042881317138672,9.1250244140625,3.7044964599609376
86415,0.025147705078125002,9.583221588134766,2.3843916320800784
86481,-0.7509883117675782,10.315049743652343,2.6373655700683596
86549,-0.5243595886230469,8.82175506591797,3.3681459045410156
86615,0.4302053833007813,8.995244293212892,3.0385313415527344
86683,-0.3495231628417969,8.647667083740235,3.566932525634766
86749,-0.013921051025390626,10.22239242553711,3.09676025390625
86815,-0.2327659606933594,10.055489501953126,2.883453826904297
86881,-0.22528152465820314,9.582323455810547,3.7749998474121096
86949,-0.10193801879882813,9.070837097167969,2.2938299560546875
87015,0.22348526000976562,9.8483203125,2.199376373291016
87081,-0.21704864501953125,9.723030853271485,2.075434112548828
87149,-0.32362701416015627,9.145831146240235,2.319576416015625
87215,-0.020507354736328125,9.686656494140626,2.8232789611816407
87281,-0.13846206665039062,9.825417938232423,2.881058807373047
87349,-0.0736468505859375,9.59489730834961,2.2514680480957034
87415,0.08158035278320312,10.176587677001953,2.399659881591797
87481,0.20866607666015627,9.939031677246094,2.758463745117188
87549,0.5125341796875,9.228609008789062,2.8903395080566407
87615,0.027093658447265627,9.129814453125,2.5168661499023437
87681,0.45340713500976565,9.639803924560548,2.198927307128906
87749,-0.28800109863281254,8.898545379638673,2.693049774169922
87815,-0.15537689208984376,8.922345886230469,3.1475047302246097
87881,0.035326538085937505,8.977730712890626,2.9882359313964844
87949,0.27422973632812503,8.528514862060547,2.398612060546875
88015,-0.11585906982421876,9.679022369384766,2.5562342834472656
88081,0.19893630981445312,10.027198333740236,3.0190718078613283
88149,0.3638932800292969,9.394015045166016,3.5175352478027344
88215,0.2924917602539063,9.488618316650392,2.83809814453125
88281,0.1986369323730469,8.784632263183594,2.7164012145996095
88349,0.2639012145996094,9.04404281616211,2.5233027648925783
88415,-0.5200186157226563,8.82894012451172,2.921474761962891
88481,-0.13037887573242188,8.539292449951173,2.741997985839844
88549,-0.14804214477539063,9.501042480468751,3.0320947265625002
88615,-0.15298187255859375,9.45927932739258,3.0723609924316406
88681,0.258662109375,9.45838119506836,2.7834617614746096
88749,0.12364288330078126,9.240733795166015,3.0292506408691406
88815,0.09145980834960937,9.097032623291016,2.436632995605469
88881,0.22782623291015627,9.761500854492189,3.1570848083496097
88949,-0.09041198730468751,9.81673599243164,2.934198303222656
89015,0.3683839416503906,9.749076690673828,2.7846592712402347
89081,0.14534774780273438,9.243727569580079,2.7057733154296875
89148,0.7252418518066407,9.53457275390625,2.2697300720214844
89215,0.12439132690429688,9.737700347900391,3.469185791015625
89281,0.03397933959960937,9.257049865722657,2.849923553466797
89348,0.4317022705078125,9.083261260986328,2.8797116088867187
89415,0.44607238769531254,9.077872467041017,2.8627967834472656
89481,0.24593856811523437,9.885742492675782,2.877615966796875
89549,0.32647109985351563,9.722132720947267,3.300935668945313
89615,0.6553372192382813,8.867410125732423,2.9629385375976565
89681,0.5433700561523438,9.504635009765625,2.608026580810547
89749,0.15328125,9.244026947021485,2.953807525634766
89815,0.4002676391601563,9.60926742553711,3.1774424743652347
89881,0.17857864379882812,9.465865631103517,3.3543745422363282
89949,0.5694158935546876,8.93147689819336,3.4751733398437503
90015,0.38619689941406254,8.898695068359375,3.515589294433594
90081,0.39278320312500004,9.01769760131836,3.406765594482422
90149,0.37661682128906254,8.993597717285157,3.4784664916992187
90215,0.34787658691406254,8.851692810058594,3.584146728515625
90281,0.7673043823242188,8.833580474853516,3.6805462646484375
90349,0.5945635986328125,9.345964965820313,3.550167388916016
90415,0.6041436767578126,9.222771148681641,3.936064910888672
90481,0.5254074096679687,9.118587799072266,4.090693359375
90549,0.4454736328125,8.978628845214844,4.201463012695313
90615,0.456251220703125,8.528514862060547,4.2608894348144535
90681,0.48035110473632814,9.724527740478516,2.6373655700683596
90749,0.25297393798828127,9.985135803222656,1.317410430908203
90815,0.21420455932617188,9.773625640869142,0.9761201477050782
90881,0.32108230590820314,9.579928436279298,0.8580157470703126
90949,0.27542724609375,9.396709442138672,1.5557148742675782
91015,0.38709503173828125,9.199120330810548,2.0336709594726563
91081,0.28231292724609375,9.552834777832032,1.6675323486328126
91149,0.204774169921875,9.925859069824218,1.6745677185058594
91215,0.2118095397949219,9.674232330322265,1.7750088500976564
91281,0.23516098022460938,9.588311004638673,1.8474581909179688
91349,0.25956024169921876,9.564510498046875,1.6072077941894531
91415,0.34218841552734375,9.567653961181641,1.6881893920898439
91481,0.28755203247070316,9.744136962890625,1.81302978515625
91549,0.23935226440429688,9.694440307617189,1.7838404846191407
91615,0.23995101928710938,9.792336730957032,1.9017951965332032
91681,0.3311114501953125,9.782157897949219,1.7365388488769533
91749,0.30865814208984377,9.708960113525391,1.854792938232422
91815,0.36658767700195316,9.820478210449219,1.7654287719726562
91881,0.34727783203125,9.5417578125,1.6946260070800783
91949,0.30910720825195315,9.667795715332032,1.791324920654297
92015,0.38934036254882814,9.501790924072266,1.640438690185547
92081,0.32482452392578126,9.674980773925782,1.7049545288085939
92149,0.3074606323242188,9.64609085083008,1.6914825439453125
92215,0.2947370910644531,9.49430648803711,1.7046551513671875
92281,0.22483245849609376,9.611961822509766,1.675316162109375
92348,0.24204666137695313,9.651180267333984,1.6028668212890627
92415,0.21570144653320314,9.893675994873048,1.6977694702148438
92481,0.2893482971191406,9.625284118652344,1.6076568603515626
92549,0.2700384521484375,9.583071899414064,1.7326469421386719
92615,0.24683670043945313,9.683363342285157,1.766326904296875
92681,0.28410919189453127,9.530082092285157,1.7967137145996095
92749,0.21315673828125,9.654922485351562,1.8242564392089844
92815,0.2782713317871094,9.84547622680664,1.7224681091308596
92881,0.30865814208984377,9.893077239990236,1.8100360107421876
92949,0.30446685791015626,9.905501403808595,1.7458195495605469
93015,0.3607498168945313,9.558672637939454,1.7868342590332031
93081,0.3745211791992188,9.703421630859376,1.828447723388672
93149,0.34099090576171875,9.573042755126954,1.6916322326660158
93215,0.33859588623046877,9.670490112304687,1.6989669799804688
93281,0.34862503051757815,9.706265716552736,1.6563056945800783
93349,0.2860551452636719,9.582772521972657,1.7458195495605469
93415,0.31689102172851563,9.61450653076172,1.713636474609375
93481,0.3330574035644531,9.588760070800781,1.5715818786621094
93549,0.23845413208007812,9.677974548339844,1.7320481872558595
93615,0.29593460083007816,9.54939193725586,1.7416282653808595
93681,0.27333160400390627,9.54699691772461,1.785187683105469
93749,0.16929794311523438,9.634115753173829,1.8573376464843752
93815,0.2871029663085938,9.554032287597657,1.7576449584960938
93881,0.3550616455078125,9.813742218017579,1.829645233154297
93949,0.3263214111328125,9.76254867553711,1.7777032470703127
94015,0.38170623779296875,9.648186492919923,1.7946180725097658
94081,0.37197647094726566,9.69698501586914,1.793719940185547
94149,0.3703298950195313,9.648934936523437,1.6441809082031251
94215,0.38095779418945314,9.687704315185547,1.6994160461425782
94281,0.35057098388671876,9.610315246582031,1.7312997436523438
94349,0.23231689453125,9.53352493286133,1.68848876953125
94415,0.20642074584960937,9.733509063720703,1.7524058532714846
94481,0.25462051391601564,9.633367309570312,1.6169375610351564
94549,0.2980302429199219,9.62887664794922,1.7040563964843751
94615,0.24923171997070315,9.655371551513673,1.6892372131347657
94681,0.2794688415527344,9.56286392211914,1.8254539489746096
94749,0.2866539001464844,9.892478485107423,1.8937120056152346
94815,0.3141966247558594,9.812245330810548,1.6772621154785157
94881,0.33021331787109376,9.944270782470703,1.796114959716797
94948,0.34218841552734375,9.710906066894532,1.867965545654297
95015,0.34173934936523437,9.53891372680664,1.7667759704589845
95081,0.34682876586914063,9.69788314819336,1.7895286560058594
95149,0.3622467041015625,9.538464660644532,1.6643888854980469
95215,0.307760009765625,9.637259216308594,1.7272581481933595
95281,0.38125717163085937,9.625284118652344,1.5792160034179688
95349,0.3065625,9.642198944091797,1.6657360839843751
95415,0.12543914794921876,9.72662338256836,1.799707489013672
95481,0.23231689453125,9.45209426879883,1.6744180297851563
95549,0.19055374145507814,9.6519287109375,1.7438735961914062
95615,0.23067031860351564,9.6998291015625,1.6079562377929688
95681,0.3095562744140625,9.714498596191406,1.7727635192871094
95748,0.3131488037109375,9.691895599365235,1.6127462768554688
95815,0.27138565063476566,9.56136703491211,1.7778529357910158
95881,0.20836669921875,9.817933502197267,1.9145187377929689
95948,0.24683670043945313,9.62363754272461,1.7229171752929688
96015,0.20582199096679688,9.895023193359375,1.8353334045410157
96081,0.346080322265625,9.847122802734376,1.7884808349609376
96148,0.3514691162109375,9.776320037841797,1.85614013671875
96215,0.32587234497070316,9.833351440429688,1.8095869445800783
96281,0.32841705322265624,9.515113220214845,1.7628840637207033
96349,0.33904495239257815,9.632469177246094,1.828597412109375
96415,0.37092864990234375,9.557175750732423,1.7095948791503908
96481,0.3818559265136719,9.564211120605469,1.7042060852050782
96549,0.38634658813476563,9.668095092773438,1.6317567443847658
96615,0.3399430847167969,9.652377777099609,1.6807049560546876
96682,0.3333567810058594,9.644893341064453,1.721869354248047
96749,0.2656974792480469,9.507329406738283,1.6622932434082032
96815,0.20866607666015627,9.718240814208984,1.7628840637207033
96881,0.23201751708984375,9.521250457763673,1.6146922302246094
96949,0.34084121704101566,9.666149139404297,1.7672250366210938
97015,0.319735107421875,9.747579803466797,1.6555572509765626
97081,0.3135978698730469,9.618248748779298,1.7371376037597657
97149,0.19399658203125,9.787247314453126,1.8712586975097658
97215,0.23680755615234375,9.743538208007813,1.7318984985351564
97281,0.21899459838867188,9.86074447631836,1.8586848449707032
97348,0.34757720947265625,9.832153930664063,1.7759069824218752
97415,0.3492237854003906,9.738448791503906,1.8462606811523439
97481,0.3603007507324219,9.847272491455078,1.7797988891601564
97548,0.3692820739746094,9.601782989501954,1.707499237060547
97615,0.3890409851074219,9.714498596191406,1.7919236755371095
97681,0.42047561645507814,9.647737426757812,1.6266673278808594
97748,0.3549119567871094,9.654024353027344,1.747166748046875
97815,0.23381378173828127,9.62992446899414,1.7426760864257813
97881,0.23501129150390626,9.48038543701172,1.7277072143554688
97949,0.2089654541015625,9.735005950927734,1.7622853088378907
98015,0.33560211181640626,9.649533691406251,1.6006214904785157
98081,0.2549198913574219,9.653575286865236,1.7214202880859375
98149,0.32841705322265624,9.688452758789063,1.6772621154785157
98215,0.2736309814453125,9.646689605712892,1.7717156982421876
98281,0.18486557006835938,9.8435302734375,1.8793418884277344
98349,0.30910720825195315,9.669591979980469,1.761387176513672
98415,0.24998016357421876,9.921967163085938,1.8467097473144531
98481,0.298179931640625,9.730215911865235,1.836830291748047
98549,0.38634658813476563,9.538015594482422,1.7631834411621095
98615,0.3394940185546875,9.796378326416017,1.8375787353515627
98681,0.34937347412109376,9.674531707763672,1.6727714538574219
98749,0.3315605163574219,9.542506256103517,1.7095948791503908
98815,0.2820135498046875,9.663604431152343,1.6886384582519531
98881,0.24548950195312502,9.54699691772461,1.6260685729980469
98948,0.24459136962890626,9.739945678710939,1.723066864013672
99015,0.3261717224121094,9.610015869140625,1.577120361328125
99081,0.21210891723632813,9.526489562988282,1.7947677612304689
99148,0.14759307861328125,9.795929260253907,1.8134788513183595
99215,0.23875350952148439,9.588760070800781,1.781744842529297
99281,0.20207977294921875,9.943522338867188,1.8206639099121094
99348,0.32183074951171875,9.886940002441406,1.730102233886719
99415,0.3285667419433594,9.790241088867187,1.845212860107422
99481,0.35102005004882814,9.768236846923829,1.8323396301269532
99549,0.3661386108398438,9.536818084716797,1.7178277587890627
99615,0.3335064697265625,9.726922760009765,1.811682586669922
99681,0.3656895446777344,9.548344116210938,1.6904347229003907
99748,0.326920166015625,9.62273941040039,1.7441729736328127
99815,0.34099090576171875,9.62453567504883,1.6772621154785157
99881,0.2748284912109375,9.548194427490236,1.7260606384277344
99949,0.2746788024902344,9.719288635253907,1.7633331298828125
100015,0.30386810302734374,9.615105285644532,1.6340020751953126
100081,0.29189300537109375,9.761201477050781,1.7368382263183595
100149,0.3610491943359375,9.668843536376954,1.8480569458007814
100215,0.2760260009765625,9.583670654296876,1.7256115722656251
100281,0.19369720458984377,9.82002914428711,1.8615289306640626
100349,0.25896148681640624,9.552834777832032,1.7281562805175783
100415,0.38559814453125,9.878258056640625,1.7908758544921877
100481,0.3212319946289063,9.806557159423829,1.7965640258789064
100549,0.3823049926757813,9.660910034179688,1.828447723388672
100615,0.34143997192382813,9.717941436767578,1.7774038696289063
100681,0.36284545898437504,9.62273941040039,1.667981414794922
100749,0.36628829956054687,9.705217895507813,1.7492623901367188
100815,0.38709503173828125,9.675429840087892,1.686991882324219
100881,0.2436932373046875,9.51735855102539,1.7033079528808595
100949,0.24998016357421876,9.635313262939453,1.744771728515625
101015,0.2125579833984375,9.499395904541016,1.5850538635253908
101081,0.2528242492675781,9.767039337158204,1.7048048400878908
101149,0.32751892089843754,9.692045288085938,1.5861016845703126
101215,0.2734812927246094,9.717941436767578,1.7305513000488282
101281,0.2233355712890625,9.818083190917969,1.8318905639648437
101349,0.31629226684570316,9.675280151367188,1.780547332763672
101415,0.23201751708984375,9.901759185791017,1.9221528625488282
101481,0.28021728515625,9.761500854492189,1.76512939453125
101549,0.3305126953125,9.57184524536133,1.81302978515625
101615,0.35865417480468753,9.76449462890625,1.8371296691894532
101681,0.3941304016113281,9.607620849609376,1.6175363159179688
101749,0.3107537841796875,9.627828826904297,1.6696279907226563
101815,0.316142578125,9.61405746459961,1.6675323486328126
101881,0.28800109863281254,9.53936279296875,1.6426840209960938
101949,0.21210891723632813,9.755213928222657,1.709894256591797
102015,0.26914031982421877,9.542506256103517,1.5992742919921876
102081,0.2165995788574219,9.72617431640625,1.7293537902832032
102149,0.25761428833007816,9.672136688232422,1.7646803283691408
102215,0.239501953125,9.532776489257813,1.7271084594726562
102282,0.20103195190429687,9.714947662353516,1.8043478393554688
102349,0.25656646728515625,9.794881439208984,1.77470947265625
102416,0.34024246215820314,9.877659301757813,1.8041981506347657
102481,0.3351530456542969,9.847571868896486,1.79865966796875
102549,0.4159849548339844,9.530980224609376,1.7359400939941407
102615,0.3303630065917969,9.69159622192383,1.7585430908203126
102682,0.37197647094726566,9.585616607666017,1.699116668701172
102749,0.36598892211914064,9.770033111572266,1.7167799377441406
102815,0.33021331787109376,9.629026336669922,1.6232244873046875
102881,0.3040177917480469,9.577533416748047,1.7025595092773438
102949,0.31629226684570316,9.648336181640625,1.660796356201172
103015,0.2878514099121094,9.599537658691407,1.5884967041015625
103081,0.2417472839355469,9.686057739257812,1.7820442199707032
103149,0.38050872802734376,9.622140655517578,1.5838563537597656
103215,0.29458740234375,9.466165008544923,1.7926721191406252
103281,0.19953506469726565,9.692194976806642,1.864522705078125
103349,0.2442919921875,9.570198669433594,1.720671844482422
103415,0.1622625732421875,9.842931518554687,1.8444644165039064
103481,0.3511697387695313,9.82526824951172,1.8224601745605469
103549,0.37856277465820315,9.761351165771485,1.8736537170410157
103615,0.30671218872070316,9.79892303466797,1.7500108337402345
103681,0.3734733581542969,9.619745635986328,1.703906707763672
103749,0.36314483642578127,9.69593719482422,1.809287567138672
103815,0.3733236694335938,9.580676879882812,1.6690292358398438
103882,0.3062631225585938,9.55223602294922,1.721719665527344
103949,0.2423460388183594,9.633666687011718,1.6985179138183595
104015,0.23052062988281252,9.42245590209961,1.7395326232910158
104081,0.22617965698242187,9.749525756835938,1.7298028564453125
104149,0.28261230468750004,9.633966064453125,1.6215779113769533
104215,0.2871029663085938,9.775122528076173,1.730251922607422
104281,0.3231779479980469,9.665101318359376,1.827250213623047
104349,0.22363494873046877,9.546248474121095,1.7655784606933596
104415,0.20357666015625,9.74817855834961,1.8503022766113282
104481,0.25731491088867187,9.651779022216797,1.7890795898437502
104549,0.3405418395996094,9.814490661621095,1.8371296691894532
104615,0.3183879089355469,9.798773345947266,1.7612374877929688
104681,0.3737727355957031,9.595496063232423,1.8279986572265625
104749,0.41074584960937505,9.695338439941407,1.8001565551757814
104815,0.3824546813964844,9.631571044921875,1.614093475341797
104881,0.3357518005371094,9.657467193603516,1.7113911437988283
104948,0.20447479248046876,9.641300811767579,1.7339941406250001
105015,0.22363494873046877,9.533824310302736,1.6699273681640625
105081,0.18276992797851563,9.77976287841797,1.749561767578125
105149,0.295784912109375,9.581575012207031,1.6515156555175783
105215,0.2989283752441406,9.61315933227539,1.739981689453125
105281,0.2939886474609375,9.693392486572266,1.7257612609863282
105348,0.2950364685058594,9.561067657470703,1.7467176818847656
105415,0.23785537719726563,9.879305877685548,1.858385467529297
105482,0.29788055419921877,9.807155914306641,1.7263600158691408
105549,0.30805938720703124,9.884395294189453,1.8371296691894532
105615,0.33365615844726565,9.761650543212891,1.8109341430664063
105682,0.3650907897949219,9.558373260498048,1.816472625732422
105749,0.3189866638183594,9.73904754638672,1.8001565551757814
105815,0.37511993408203126,9.559870147705078,1.6636404418945314
105882,0.338895263671875,9.656868438720704,1.714684295654297
105949,0.3011737060546875,9.64474365234375,1.5883470153808594
106016,0.3046165466308594,9.581724700927735,1.6543597412109377
106082,0.21210891723632813,9.786349182128907,1.7545014953613283
106149,0.25926086425781253,9.608968048095704,1.636846160888672
106215,0.24159759521484375,9.708211669921875,1.72680908203125
106281,0.3001258850097656,9.648336181640625,1.7271084594726562
106349,0.25731491088867187,9.524094543457032,1.8154248046875001
106415,0.21420455932617188,9.675429840087892,1.8375787353515627
106481,0.28351043701171874,9.752669219970704,1.7543518066406252
106549,0.290994873046875,9.860894165039063,1.8402731323242187
106615,0.3549119567871094,9.818681945800781,1.7574952697753907
106681,0.36134857177734375,9.514963531494141,1.7920733642578126
106749,0.2998265075683594,9.695338439941407,1.859732666015625
106816,0.3710783386230469,9.517957305908203,1.7197737121582033
106881,0.3400927734375,9.712402954101563,1.7329463195800783
106949,0.338895263671875,9.703421630859376,1.7163308715820313
107015,0.288599853515625,9.56046890258789,1.7396823120117189
107081,0.19100280761718752,9.598190460205078,1.665586395263672
107149,0.207169189453125,9.634864196777345,1.6497193908691408
107215,0.25267456054687504,9.753717041015625,1.7540524291992188
107281,0.30491592407226564,9.629475402832032,1.5778688049316407
107349,0.24324417114257812,9.575437774658203,1.7345928955078125
107416,0.21540206909179688,9.820627899169923,1.850152587890625
107482,0.2700384521484375,9.650132446289064,1.7371376037597657
107549,0.207169189453125,9.864636383056641,1.8006056213378907
107616,0.3147953796386719,9.871821441650392,1.7630337524414064
107681,0.38859191894531253,9.763147430419922,1.7941690063476563
107749,0.34682876586914063,9.751771087646485,1.7702188110351564
107816,0.39008880615234376,9.685758361816406,1.585353240966797
107882,0.36179763793945313,9.686506805419922,1.6994160461425782
107949,0.3614982604980469,9.668993225097656,1.6540603637695312
108016,0.34173934936523437,9.505383453369141,1.690734100341797
108081,0.17797988891601563,9.640851745605469,1.730102233886719
108149,0.2041754150390625,9.51017349243164,1.6425343322753907
108216,0.1802252197265625,9.711205444335938,1.6998651123046875
108281,0.34757720947265625,9.663155364990235,1.6426840209960938
108349,0.2636018371582031,9.637408905029297,1.701661376953125
108416,0.2866539001464844,9.643845520019532,1.8525476074218752
108481,0.2881507873535156,9.696236572265626,1.7310003662109377
108549,0.239501953125,9.952803039550782,1.858385467529297
108615,0.3296145629882813,9.76254867553711,1.7539027404785157
108681,0.40236328125000004,9.601034545898438,1.7968634033203126
108749,0.30865814208984377,9.76973373413086,1.807042236328125
108816,0.3875440979003906,9.55942108154297,1.785337371826172
108881,0.3722758483886719,9.681866455078126,1.7474661254882813
108949,0.38859191894531253,9.661808166503906,1.6158897399902346
109016,0.34937347412109376,9.654922485351562,1.7175283813476563
109082,0.3656895446777344,9.650282135009766,1.7742604064941407
109149,0.2183958435058594,9.526489562988282,1.6838484191894532
109216,0.1920506286621094,9.744586029052735,1.755249938964844
109281,0.2628533935546875,9.557774505615235,1.6706758117675782
109349,0.27692413330078125,9.597891082763672,1.7591418457031252
109416,0.29054580688476567,9.692793731689454,1.6887881469726564
109481,0.3159928894042969,9.567354583740235,1.790127410888672
109549,0.23486160278320314,9.816137237548828,1.8947598266601564
109615,0.259859619140625,9.718091125488282,1.738634490966797
109681,0.25222549438476566,9.882000274658203,1.859582977294922
109749,0.3074606323242188,9.759405212402344,1.8079403686523439
109816,0.3852987670898438,9.611363067626954,1.8281483459472656
109881,0.3658392333984375,9.763147430419922,1.8326390075683594
109950,0.3146456909179688,9.52065170288086,1.7573455810546876
110016,0.3598516845703125,9.702373809814453,1.735041961669922
110082,0.41583526611328125,9.654024353027344,1.6771124267578126
110148,0.33290771484375004,9.650880889892578,1.6781602478027344
110216,0.16525634765625,9.681866455078126,1.7491127014160157
110281,0.2327659606933594,9.552984466552735,1.6792080688476563
110348,0.1874102783203125,9.743987274169923,1.7766554260253906
110416,0.25387207031250003,9.682016143798828,1.6744180297851563
110481,0.29593460083007816,9.543853454589843,1.8110838317871094
110549,0.22662872314453125,9.685758361816406,1.826052703857422
110616,0.2585124206542969,9.770931243896484,1.7310003662109377
110682,0.2827619934082031,9.848919067382813,1.85853515625
110749,0.32527359008789064,9.795031127929688,1.7539027404785157
110816,0.3692820739746094,9.834848327636719,1.7751585388183595
110882,0.3469784545898438,9.705816650390625,1.848805389404297
110949,0.35940261840820314,9.503587188720704,1.7187258911132814
111016,0.35625915527343754,9.681267700195313,1.8018031311035156
111082,0.35670822143554687,9.68261489868164,1.6850459289550783
111149,0.31569351196289064,9.61211151123047,1.6937278747558595
111216,0.28725265502929687,9.650132446289064,1.6675323486328126
111282,0.2321672058105469,9.629475402832032,1.6185841369628906
111349,0.23680755615234375,9.770631866455078,1.7347425842285158
111416,0.2844085693359375,9.540560302734375,1.6606466674804687
111482,0.307760009765625,9.555828552246094,1.7164805603027344
111549,0.27916946411132815,9.737700347900391,1.802102508544922
111615,0.259859619140625,9.564959564208985,1.8265017700195314
111682,0.21689895629882813,9.770332489013672,1.8281483459472656
111748,0.3338058471679688,9.794282684326172,1.7479151916503908
111816,0.35206787109375004,9.789941711425781,1.8447637939453125
111882,0.3501219177246094,9.784403228759766,1.8073416137695313
111949,0.40386016845703127,9.593250732421875,1.6880397033691408
112015,0.36060012817382814,9.714348907470704,1.8055453491210938
112081,0.3956272888183594,9.588311004638673,1.6094531250000002
112149,0.35700759887695316,9.499395904541016,1.6988172912597657
112215,0.2285746765136719,9.648186492919923,1.7522561645507813
112282,0.21749771118164063,9.51107162475586,1.66693359375
112349,0.17094451904296876,9.648336181640625,1.6832496643066408
112416,0.34278717041015627,9.663005676269531,1.6084053039550783
112482,0.2963836669921875,9.67438201904297,1.7360897827148438
112549,0.3035687255859375,9.685309295654298,1.8675164794921877
112616,0.26539810180664064,9.618697814941406,1.7048048400878908
112681,0.173638916015625,9.788295135498048,1.8995498657226564
112749,0.28216323852539066,9.725425872802735,1.7049545288085939
112816,0.36314483642578127,9.701775054931641,1.8058447265625002
112882,0.3126997375488281,9.730215911865235,1.7958155822753907
112949,0.3800596618652344,9.57723403930664,1.8040484619140627
113016,0.3311114501953125,9.682016143798828,1.7498611450195314
113082,0.3632945251464844,9.68111801147461,1.6343014526367188
113149,0.367635498046875,9.624984741210938,1.7181271362304689
113216,0.3634442138671875,9.690548400878907,1.7327966308593752
113281,0.17992584228515626,9.526938629150392,1.6651373291015625
113349,0.19160156250000002,9.716594238281251,1.7308506774902344
113415,0.21869522094726562,9.517208862304688,1.5726296997070313
113481,0.27228378295898437,9.644144897460938,1.7259109497070313
113549,0.2939886474609375,9.664502563476564,1.6459771728515626
113616,0.27452911376953126,9.59160415649414,1.7690213012695313
113682,0.16390914916992189,9.819879455566406,1.9208056640625002
113749,0.31719039916992187,9.71704330444336,1.7043557739257813
113816,0.25881179809570315,9.908794555664063,1.8537451171875001
113881,0.34129028320312504,9.744735717773438,1.8193167114257813
113949,0.4110452270507813,9.548643493652344,1.7726138305664063
114015,0.34129028320312504,9.73859848022461,1.8639239501953127
114081,0.3403921508789063,9.52020263671875,1.606908416748047
114149,0.3541635131835938,9.684860229492188,1.70525390625
114216,0.37931121826171876,9.659263458251953,1.6477734375000002
114282,0.33171020507812504,9.608369293212892,1.6377442932128907
114349,0.17034576416015626,9.712402954101563,1.716929626464844
114416,0.23186782836914063,9.540410614013672,1.6347505187988283
114482,0.20582199096679688,9.715995483398437,1.7456698608398438
114549,0.2974314880371094,9.697134704589844,1.6819024658203126
114615,0.2517764282226563,9.540111236572265,1.7390835571289063
114682,0.22303619384765627,9.70701416015625,1.7762063598632813
114749,0.26375152587890627,9.764195251464844,1.749561767578125
114816,0.3261717224121094,9.883497161865234,1.7643809509277344
114881,0.3399430847167969,9.849068756103517,1.7238153076171876
114948,0.3737727355957031,9.565558319091798,1.7730628967285158
115015,0.36254608154296875,9.634864196777345,1.783241729736328
115081,0.32332763671875003,9.51062255859375,1.7205221557617187
115149,0.35670822143554687,9.696086883544922,1.8018031311035156
115216,0.3626957702636719,9.658814392089845,1.6649876403808594
115282,0.29219238281250004,9.560917968750001,1.7104930114746095
115349,0.2844085693359375,9.622589721679688,1.6590000915527345
115416,0.2245330810546875,9.608668670654298,1.6160394287109376
115481,0.22962249755859376,9.75970458984375,1.7389338684082032
115549,0.35281631469726565,9.620194702148439,1.5754737854003906
115615,0.23725662231445313,9.5273876953125,1.7863851928710939
115682,0.19728973388671875,9.74009536743164,1.8720071411132813
115749,0.2956352233886719,9.583670654296876,1.7594412231445313
115816,0.15911911010742188,9.895172882080079,1.83697998046875
115881,0.30611343383789064,9.778265991210938,1.7792001342773438
115949,0.3592529296875,9.66674789428711,1.7597406005859375
116016,0.3276686096191406,9.785151672363282,1.8182688903808595
116082,0.40610549926757816,9.579629058837892,1.7242643737792969
116149,0.3359014892578125,9.704768829345703,1.7437239074707032
116216,0.40311172485351565,9.657018127441408,1.593586120605469
116281,0.19983444213867188,9.49191146850586,1.746867370605469
116349,0.20746856689453125,9.633966064453125,1.7479151916503908
116416,0.23261627197265627,9.556726684570313,1.663341064453125
116481,0.239501953125,9.639803924560548,1.7690213012695313
116549,0.30551467895507817,9.67827392578125,1.6630416870117188
116616,0.22917343139648438,9.581724700927735,1.7655784606933596
116681,0.22034179687500002,9.624835052490235,1.8395246887207033
116749,0.27452911376953126,9.726773071289063,1.7342935180664063
116816,0.2770738220214844,9.8626904296875,1.8878741455078125
116882,0.3638932800292969,9.76404556274414,1.7989590454101563
116949,0.37167709350585937,9.482630767822267,1.7568965148925781
117015,0.32751892089843754,9.704020385742188,1.8064434814453125
117081,0.35700759887695316,9.545200653076172,1.781595153808594
117149,0.38769378662109377,9.653724975585938,1.7521064758300782
117216,0.4053570556640625,9.648785247802735,1.6178356933593752
117282,0.3165916442871094,9.571096801757813,1.68369873046875
117349,0.30252090454101566,9.625882873535156,1.72680908203125
117415,0.2568658447265625,9.554780731201172,1.653760986328125
117481,0.20582199096679688,9.798773345947266,1.7155824279785157
117549,0.33066238403320314,9.566905517578126,1.5861016845703126
117616,0.23860382080078127,9.544302520751954,1.7741107177734377
117681,0.23875350952148439,9.73575439453125,1.7847386169433594
117749,0.2824626159667969,9.566456451416016,1.7441729736328127
117816,0.16510665893554688,9.885293426513673,1.8401234436035157
117881,0.31883697509765624,9.825417938232423,1.7926721191406252
117949,0.40161483764648437,9.864337005615235,1.819915466308594
118016,0.34368530273437503,9.788744201660156,1.81302978515625
118082,0.3644920349121094,9.575288085937501,1.721719665527344
118149,0.3848497009277344,9.705217895507813,1.8143769836425783
118216,0.3737727355957031,9.568252716064453,1.684896240234375
118282,0.298179931640625,9.520502014160156,1.7127383422851563
118348,0.27767257690429686,9.583071899414064,1.7357904052734376
118416,0.20686981201171875,9.543105010986329,1.713337097167969
118482,0.21405487060546877,9.770033111572266,1.7298028564453125
118549,0.3135978698730469,9.641450500488281,1.599873046875
118615,0.2977308654785156,9.780361633300782,1.703906707763672
118682,0.2273771667480469,9.678573303222656,1.8142272949218752
118749,0.28336074829101565,9.558373260498048,1.760189666748047
118816,0.19699035644531251,9.83918930053711,1.832040252685547
118882,0.34982254028320314,9.75970458984375,1.7366885375976564
118949,0.3507206726074219,9.74009536743164,1.8106347656250001
119016,0.35581008911132816,9.739197235107422,1.7977615356445313
119081,0.3585044860839844,9.598639526367188,1.6649876403808594
119149,0.35685791015625,9.669591979980469,1.7676741027832032
119216,0.379610595703125,9.614207153320313,1.619033203125
119282,0.3680845642089844,9.677974548339844,1.6997154235839844
119349,0.18441650390625,9.667795715332032,1.726659393310547
119416,0.2118095397949219,9.494007110595703,1.6444802856445313
119481,0.16615447998046876,9.736053771972657,1.7492623901367188
119549,0.286204833984375,9.684860229492188,1.6172369384765626
119616,0.29832962036132815,9.566905517578126,1.6961228942871094
119681,0.269439697265625,9.639354858398438,1.700314178466797
119749,0.2640509033203125,9.53981185913086,1.7405804443359376
119816,0.23725662231445313,9.924062805175781,1.8685643005371095
119881,0.2556683349609375,9.754166107177735,1.7287550354003907
119949,0.30790969848632815,9.814790039062501,1.8088385009765626
120016,0.3758683776855469,9.758058013916017,1.7995578002929689
120082,0.3523672485351563,9.596543884277343,1.7675244140625002
120149,0.36284545898437504,9.695338439941407,1.8113832092285158
120216,0.3592529296875,9.63561264038086,1.6289126586914062
120281,0.29174331665039066,9.562564544677734,1.7197737121582033
120349,0.298179931640625,9.613608398437501,1.7027091979980469
120415,0.24069946289062502,9.564061431884767,1.578168182373047
120482,0.17558486938476564,9.840386810302736,1.7160314941406252
120549,0.3525169372558594,9.680369567871095,1.6119978332519531
120616,0.2697390747070313,9.819879455566406,1.7390835571289063
120682,0.21630020141601564,9.6902490234375,1.7836907958984376
120749,0.2477348327636719,9.543105010986329,1.7646803283691408
120815,0.20372634887695312,9.749076690673828,1.8673667907714844
120881,0.33171020507812504,9.79173797607422,1.7419276428222656
120949,0.3445834350585938,9.743987274169923,1.8062937927246094
121016,0.3124003601074219,9.816286926269532,1.799857177734375
121081,0.37661682128906254,9.625284118652344,1.6777111816406252
121149,0.37392242431640627,9.769584045410157,1.7715660095214845
121216,0.4044589233398438,9.602681121826173,1.6495697021484377
121281,0.3637435913085938,9.504934387207031,1.6657360839843751
121349,0.20193008422851563,9.626930694580079,1.7021104431152345
121416,0.20686981201171875,9.530830535888672,1.6893869018554688
121481,0.2183958435058594,9.764195251464844,1.747166748046875
121548,0.32706985473632816,9.688901824951172,1.5846047973632813
121616,0.324525146484375,9.627230072021485,1.73638916015625
121682,0.2824626159667969,9.713600463867188,1.9214044189453126
121749,0.24893234252929688,9.681866455078126,1.7155824279785157
121816,0.2221380615234375,9.837692413330078,1.8724562072753907
121882,0.2724334716796875,9.79173797607422,1.707499237060547
121949,0.2556683349609375,9.710007934570314,1.823507995605469
122015,0.3477268981933594,9.78365478515625,1.7980609130859375
122082,0.3841012573242188,9.63172073364258,1.8047969055175783
122149,0.358055419921875,9.761500854492189,1.7765057373046875
122216,0.38080810546875005,9.649384002685547,1.5922389221191406
122281,0.35042129516601567,9.675579528808594,1.7160314941406252
122349,0.3894900512695313,9.633816375732422,1.7640815734863282
122416,0.228724365234375,9.552385711669922,1.6685801696777345
122481,0.18681152343750002,9.779463500976563,1.7402810668945314
122549,0.3010240173339844,9.577982482910157,1.6058605957031251
122616,0.20043319702148438,9.56331298828125,1.764979705810547
122682,0.2597099304199219,9.67198699951172,1.7196240234375
122749,0.2613565063476563,9.623936920166017,1.7131874084472658
122816,0.20672012329101563,9.912686462402345,1.854942626953125
122881,0.29309051513671874,9.8052099609375,1.7128880310058594
122949,0.2752775573730469,9.918524322509766,1.8205142211914063
123016,0.30296997070312504,9.797725524902344,1.8001565551757814
123082,0.38559814453125,9.575587463378907,1.7401313781738281
123148,0.32871643066406253,9.750723266601563,1.806892547607422
123216,0.3588038635253906,9.54070999145508,1.7010626220703127
123282,0.34368530273437503,9.62603256225586,1.6959732055664063
123349,0.324525146484375,9.687554626464845,1.6603472900390626
123416,0.28021728515625,9.526489562988282,1.6982185363769533
123482,0.22722747802734375,9.723479919433593,1.7166302490234375
123549,0.29832962036132815,9.643845520019532,1.6060102844238282
123615,0.2740800476074219,9.771080932617188,1.708846435546875
123681,0.3246748352050781,9.753567352294922,1.7765057373046875
123749,0.23620880126953125,9.590855712890626,1.718276824951172
123816,0.22378463745117189,9.857002258300781,1.8782940673828126
123881,0.3234773254394531,9.787397003173828,1.7513580322265625
123949,0.3153941345214844,9.796528015136719,1.7953665161132812
124016,0.3447331237792969,9.760453033447266,1.7657281494140626
124081,0.37616775512695316,9.697733459472657,1.725461883544922
124149,0.35640884399414063,9.724976806640626,1.7847386169433594
124216,0.3929328918457031,9.601184234619142,1.623673553466797
124282,0.35401382446289065,9.684111785888673,1.7729132080078125
124349,0.38350250244140627,9.634564819335939,1.7071998596191407
124416,0.24593856811523437,9.519903259277344,1.696871337890625
124482,0.19100280761718752,9.641749877929689,1.7545014953613283
124549,0.23650817871093752,9.533824310302736,1.616488494873047
124616,0.31150222778320313,9.696835327148438,1.7271084594726562
124681,0.329315185546875,9.654473419189454,1.6723223876953126
124749,0.30835876464843753,9.624685363769531,1.7742604064941407
124815,0.1920506286621094,9.886341247558594,1.8889219665527344
124882,0.31090347290039066,9.739346923828126,1.7152830505371095
124948,0.3050656127929688,9.883646850585938,1.8281483459472656
125015,0.28306137084960936,9.749376068115234,1.7800982666015626
125081,0.34503250122070317,9.577084350585938,1.7910255432128908
125149,0.33709899902343754,9.729916534423829,1.8504519653320313
125216,0.3823049926757813,9.652527465820313,1.6456777954101562
125282,0.36179763793945313,9.663305053710937,1.7127383422851563
125349,0.36434234619140626,9.677525482177735,1.6302598571777345
125416,0.3254232788085938,9.640702056884766,1.7383351135253906
125481,0.17438735961914065,9.70746322631836,1.7441729736328127
125549,0.2604583740234375,9.536518707275391,1.6561560058593752
125616,0.21644989013671875,9.753417663574218,1.7666262817382814
125682,0.3028202819824219,9.660311279296875,1.7112414550781252
125749,0.25117767333984375,9.564360809326173,1.7833914184570314
125816,0.22767654418945313,9.684560852050781,1.7708175659179688
125881,0.3400927734375,9.768087158203125,1.7561480712890627
125949,0.24998016357421876,9.903256072998047,1.8483563232421876
126016,0.3254232788085938,9.763596496582032,1.7809963989257813
126081,0.3818559265136719,9.548194427490236,1.7242643737792969
126149,0.32946487426757814,9.718689880371095,1.8077906799316408
126216,0.36898269653320315,9.586664428710938,1.6977694702148438
126282,0.38470001220703126,9.556726684570313,1.7209712219238282
126349,0.2942880249023438,9.61405746459961,1.6778608703613282
126415,0.2860551452636719,9.544452209472658,1.6877403259277344
126481,0.24099884033203126,9.642049255371095,1.7227674865722657
126549,0.29309051513671874,9.63710952758789,1.5579602050781252
126616,0.27572662353515626,9.765093383789063,1.6814533996582033
126682,0.3106040954589844,9.662257232666017,1.6266673278808594
126749,0.255069580078125,9.570797424316407,1.7459692382812502
126815,0.18232086181640625,9.799372100830078,1.8562898254394533
126882,0.25462051391601564,9.64564178466797,1.7437239074707032
126949,0.19354751586914062,9.816586303710938,1.8155744934082032
127015,0.34173934936523437,9.79802490234375,1.7875827026367188
127081,0.3686833190917969,9.676178283691407,1.798360290527344
127149,0.33979339599609376,9.72033645629883,1.7678237915039063
127216,0.3722758483886719,9.617350616455079,1.6015196228027344
127282,0.3794609069824219,9.664652252197266,1.7197737121582033
127349,0.398770751953125,9.659413146972657,1.6389418029785157
127416,0.21749771118164063,9.524393920898438,1.718426513671875
127482,0.18935623168945315,9.672885131835939,1.7736616516113282
127549,0.21824615478515627,9.537566528320314,1.627415771484375
127616,0.29533584594726564,9.70267318725586,1.7417779541015626
127682,0.3415896606445313,9.66046096801758,1.6910334777832032
127749,0.29683273315429687,9.596693572998047,1.7595909118652344
127816,0.276624755859375,9.864187316894531,1.8678158569335939
127882,0.2944377136230469,9.732311553955078,1.7491127014160157
127949,0.2505789184570313,9.857301635742187,1.8730549621582033
128015,0.3465293884277344,9.761201477050781,1.8086888122558595
128081,0.39592666625976564,9.521400146484375,1.7414785766601564
128149,0.33545242309570317,9.75012451171875,1.841620330810547
128216,0.4017645263671875,9.493108978271485,1.6878900146484377
128282,0.31748977661132816,9.574689331054689,1.7597406005859375
128349,0.3192860412597656,9.631870422363281,1.6865428161621094
128416,0.2547702026367188,9.492510223388672,1.6983682250976564
128482,0.23261627197265627,9.72617431640625,1.6899856567382814
128549,0.2797682189941406,9.619595947265626,1.6016693115234375
128616,0.24638763427734375,9.803713073730469,1.7205221557617187
128681,0.3288661193847656,9.711504821777345,1.768422546386719
128748,0.26854156494140624,9.550140380859375,1.7527052307128907
